File: example/operando/EC/220726cell4operandoxascontinuation_C06.mpt
EC-Lab ASCII FILE
Nb header lines : 82

Galvanostatic Cycling with Potential Limitation

Run on channel : 6 (SN 6042)
User :
CE vs. WE compliance from -10 V to 10 V
Electrode connection : standard
Potential control : Ewe
Ewe ctrl range : min = 0,00 V, max = 5,00 V
Safety Limits :
	Do not start on E overload
Acquisition started on : 07/28/2022 13:31:45.341
Loaded Setting File :  C:\Users\Rock-adm\Desktop\electrochem_VMP\220725PEEKMAK_LNO\220725cell2operandoxas_C05_C06.mpr
Saved on :
	File : 220726cell4operandoxascontinuation_C06.mpr
	Directory : C:\Users\Rock-adm\Desktop\electrochem_VMP\220725PEEKMAK_LNO\
	Host : 172.19.31.21
Device : VMP3 (SN 0198)
Address : USB
EC-Lab for windows v11.43 (software)
Internet server v11.40 (firmware)
Command interpretor v11.40 (firmware)
Electrode material :
Initial state :
Electrolyte :
Comments : Li-ion 18650 1.35 A.h
Comments : GITT
Mass of active material : 7000,000 mg
 at x = 1,000
Molecular weight of active material (at x = 0) : 90,930 g/mol
Atomic weight of intercalated ion : 6,940 g/mol
Acquisition started at : xo = 0,900
Number of e- transfered per intercalated ion : 1
for DX = 1, DQ = 1916,936 mA.h
Battery capacity : 0,000 A.h
Electrode surface area : 1,000 cm²
Characteristic mass : 1,000 g
Volume (V) : 1,000 cm³
Record Power
Cycle Definition : Charge/Discharge alternance
Ns                  0                   1                   2
Set I/C             I                   I                   I
Is                  0,000               385,000             -385,000
unit Is             mA                  µA                  µA
vs.                 <None>              <None>              <None>
N                   1,00                1,00                1,00
I sign              > 0                 > 0                 > 0
t1 (h:m:s)          0:00:0,0000         1000:00:0,0000      1000:00:0,0000
I Range             1 mA                1 mA                1 mA
Bandwidth           5                   5                   5
dE1 (mV)            0,00                5,00                5,00
dt1 (s)             0,0000              30,0000             30,0000
EM (V)              0,000               4,300               3,000
tM (h:m:s)          0:00:0,0000         50:00:0,0000        0:00:0,0000
Im                  0,000               0,000               0,000
unit Im             mA                  mA                  mA
dI/dt               0,000               0,000               0,000
dunit dI/dt         mA/s                mA/s                mA/s
E range min (V)     0,000               0,000               0,000
E range max (V)     5,000               5,000               5,000
dq                  0,000               1,000               1,000
unit dq             A.h                 A.h                 A.h
dtq (s)             0,0000              30,0000             120,0000
dQM                 0,000               0,000               0,000
unit dQM            mA.h                mA.h                mA.h
dxM                 0,000               0,000               0,000
delta SoC (%)       pass                pass                pass
tR (h:m:s)          1:00:10,0000        0:00:0,0000         0:00:0,0000
dER/dt (mV/h)       0,0                 0,1                 0,1
dER (mV)            0,00                0,00                0,00
dtR (s)             1,0000              120,0000            120,0000
EL (V)              pass                pass                pass
goto Ns'            0                   0                   1
nc cycles           0                   0                   99

Modify on : 07/28/2022 16:44
Ns                  0                   1                   2
tM (h:m:s)                              0:00:0,0000

mode	ox/red	error	control changes	Ns changes	counter inc.	Ns	time/s	dq/mA.h	(Q-Qo)/mA.h	control/V/mA	Ewe/V	I Range	Q charge/discharge/mA.h	half cycle	P/W	Energy charge/W.h	Energy discharge/W.h	Capacitance charge/µF	Capacitance discharge/µF	<I>/mA	x	Q discharge/mA.h	Q charge/mA.h	Capacity/mA.h	Efficiency/%	control/V	control/mA	cycle number
3	1	0	1	0	0	0	0,000000000000000E+000	0,000000000000000E+000	0,000000000000000E+000	0,0000000E+000	3,7516155E+000	14	0,000000000000000E+000	0	0,0000000E+000	0,000000000000000E+000	0,000000000000000E+000	0,000000000000000E+000	0,000000000000000E+000	0,000000000000000E+000	8,999999761581421E-001	0,000000000000000E+000	0,000000000000000E+000	0,000000000000000E+000	0,0000000E+000	0,0000000E+000	0,0000000E+000	0,000000000000000E+000
1	1	0	0	0	0	1	1,696101957152860E+002	3,204601229609715E-003	1,771504739470656E-002	3,8500002E-001	3,7847884E+000	12	1,771504742274242E-002	2	1,4554485E-003	6,695836420920634E-005	0,000000000000000E+000	2,381568604254367E+006	0,000000000000000E+000	3,845521572677704E-001	8,999907348219965E-001	0,000000000000000E+000	1,771504742274242E-002	1,771504742274242E-002	0,0000000E+000	0,0000000E+000	3,8500002E-001	1,000000000000000E+000
1	1	0	0	0	0	1	5,596101858630573E+002	3,204547741659813E-003	5,937450528807317E-002	3,8500002E-001	3,8083494E+000	12	5,937450531610904E-002	2	1,4644845E-003	2,251695848521662E-004	0,000000000000000E+000	4,246156592007875E+006	0,000000000000000E+000	3,845457387136201E-001	8,999690025033943E-001	0,000000000000000E+000	5,937450531610904E-002	5,937450531610904E-002	0,0000000E+000	0,0000000E+000	3,8500002E-001	1,000000000000000E+000
1	1	0	0	0	0	1	9,496101760108286E+002	3,204530515579714E-003	1,010338256111166E-001	3,8500002E-001	3,8314519E+000	12	1,010338256391524E-001	2	1,4733606E-003	3,843361636217918E-004	0,000000000000000E+000	4,952520912906432E+006	0,000000000000000E+000	3,845436715839559E-001	8,999472702565579E-001	0,000000000000000E+000	1,010338256391524E-001	1,010338256391524E-001	0,0000000E+000	0,0000000E+000	3,8500002E-001	1,000000000000000E+000
1	1	0	0	0	0	1	1,339610166158600E+003	3,204550022458037E-003	1,426928856651659E-001	3,8500002E-001	3,8576117E+000	12	1,426928856932013E-001	2	1,4834292E-003	5,445231454496612E-004	0,000000000000000E+000	5,157496136395227E+006	0,000000000000000E+000	3,845460124094138E-001	8,999255381454948E-001	0,000000000000000E+000	1,426928856932013E-001	1,426928856932013E-001	0,0000000E+000	0,0000000E+000	3,8500002E-001	1,000000000000000E+000
1	1	0	0	0	0	1	1,729610156306371E+003	3,204545125648379E-003	1,843521282868907E-001	3,8500002E-001	3,8883004E+000	12	1,843521283149262E-001	2	1,4952281E-003	7,058976280586649E-004	0,000000000000000E+000	5,093762279326136E+006	0,000000000000000E+000	3,845454247922400E-001	8,999038059391925E-001	0,000000000000000E+000	1,843521283149262E-001	1,843521283149262E-001	0,0000000E+000	0,0000000E+000	3,8500002E-001	1,000000000000000E+000
1	1	0	0	0	0	1	2,119610146454143E+003	3,204529514562752E-003	2,260111367982585E-001	3,8500002E-001	3,9228489E+000	12	2,260111368262940E-001	2	1,5085062E-003	8,686471473037552E-004	0,000000000000000E+000	4,935974646283773E+006	0,000000000000000E+000	3,845435514619175E-001	8,998820738550175E-001	0,000000000000000E+000	2,260111368262940E-001	2,260111368262940E-001	0,0000000E+000	0,0000000E+000	3,8500002E-001	1,000000000000000E+000
1	1	0	0	0	0	1	2,509610136601914E+003	3,204560211350520E-003	2,676701869036638E-001	3,8500002E-001	3,9540346E+000	12	2,676701869316985E-001	2	1,5205131E-003	1,032795985207004E-003	0,000000000000000E+000	4,915778775875696E+006	0,000000000000000E+000	3,845472350765427E-001	8,998603417491444E-001	0,000000000000000E+000	2,676701869316985E-001	2,676701869316985E-001	0,0000000E+000	0,0000000E+000	3,8500002E-001	1,000000000000000E+000
1	1	0	0	0	0	1	2,899610126749685E+003	3,204540392633942E-003	3,093291614783224E-001	3,8500002E-001	3,9780734E+000	12	3,093291615063571E-001	2	1,5297476E-003	1,198076081714985E-003	0,000000000000000E+000	5,060296011234887E+006	0,000000000000000E+000	3,845448568304932E-001	8,998386096826730E-001	0,000000000000000E+000	3,093291615063571E-001	3,093291615063571E-001	0,0000000E+000	0,0000000E+000	3,8500002E-001	1,000000000000000E+000
1	1	0	0	0	0	1	3,289610116897456E+003	3,204545672981275E-003	3,509882132015460E-001	3,8500002E-001	3,9970865E+000	12	3,509882132295807E-001	2	1,5370616E-003	1,364240837502586E-003	0,000000000000000E+000	5,285162795971973E+006	0,000000000000000E+000	3,845454904721892E-001	8,998168775759560E-001	0,000000000000000E+000	3,509882132295807E-001	3,509882132295807E-001	0,0000000E+000	0,0000000E+000	3,8500002E-001	1,000000000000000E+000
1	1	0	0	0	0	1	3,679610107045228E+003	3,204531728607085E-003	3,926473595628904E-001	3,8500002E-001	4,0126796E+000	12	3,926473595909251E-001	2	1,5430511E-003	1,531115994282789E-003	0,000000000000000E+000	5,550452232685858E+006	0,000000000000000E+000	3,845438171472441E-001	8,997951454198694E-001	0,000000000000000E+000	3,926473595909251E-001	3,926473595909251E-001	0,0000000E+000	0,0000000E+000	3,8500002E-001	1,000000000000000E+000
1	1	0	0	0	0	1	4,069610097192999E+003	3,204559759527445E-003	4,343064801357537E-001	3,8500002E-001	4,0272403E+000	12	4,343064801637884E-001	2	1,5486638E-003	1,698603152142862E-003	0,000000000000000E+000	5,807311923329229E+006	0,000000000000000E+000	3,845471808577723E-001	8,997734132772358E-001	0,000000000000000E+000	4,343064801637884E-001	4,343064801637884E-001	0,0000000E+000	0,0000000E+000	3,8500002E-001	1,000000000000000E+000
1	1	0	0	0	0	1	4,459610092124029E+003	3,204521806245049E-003	4,759655134222276E-001	3,8500002E-001	4,0451641E+000	12	4,759655133031431E-001	2	1,5555380E-003	1,866758456443907E-003	0,000000000000000E+000	5,967098110789370E+006	0,000000000000000E+000	3,845426214051378E-001	8,997516811801365E-001	0,000000000000000E+000	4,759655133031431E-001	4,759655133031431E-001	0,0000000E+000	0,0000000E+000	3,8500002E-001	1,000000000000000E+000
1	1	0	0	0	0	1	4,849610087402223E+003	3,204537514284253E-003	5,176242559634712E-001	3,8500002E-001	4,0702925E+000	12	5,176242552237252E-001	2	1,5652085E-003	2,035804650646381E-003	0,000000000000000E+000	5,967187946815684E+006	0,000000000000000E+000	3,845445063698651E-001	8,997299492347091E-001	0,000000000000000E+000	5,176242552237252E-001	5,176242552237252E-001	0,0000000E+000	0,0000000E+000	3,8500002E-001	1,000000000000000E+000
1	1	0	0	0	0	1	5,239610082680418E+003	3,204499389004376E-003	5,592829835098220E-001	3,8500002E-001	4,1098666E+000	12	5,592829821489609E-001	2	1,5804078E-003	2,206188199333839E-003	0,000000000000000E+000	5,722272877682395E+006	0,000000000000000E+000	3,845399313362244E-001	8,997082172971040E-001	0,000000000000000E+000	5,592829821489609E-001	5,592829821489609E-001	0,0000000E+000	0,0000000E+000	3,8500002E-001	1,000000000000000E+000
1	1	0	0	0	0	1	5,629610077958612E+003	3,204541961102022E-003	6,009416688545860E-001	3,8500002E-001	4,1612115E+000	12	6,009416668723333E-001	2	1,6001732E-003	2,378561266808135E-003	0,000000000000000E+000	5,365532743516664E+006	0,000000000000000E+000	3,845450399880039E-001	8,996864853815141E-001	0,000000000000000E+000	6,009416668723333E-001	6,009416668723333E-001	0,0000000E+000	0,0000000E+000	3,8500002E-001	1,000000000000000E+000
1	1	0	0	0	0	1	6,019610073236807E+003	3,204523644501964E-003	6,426004898829890E-001	3,8500002E-001	4,1958752E+000	12	6,426004872808978E-001	2	1,6134938E-003	2,552802910897362E-003	0,000000000000000E+000	5,283276020348703E+006	0,000000000000000E+000	3,845428419959703E-001	8,996647533951425E-001	0,000000000000000E+000	6,426004872808978E-001	6,426004872808978E-001	0,0000000E+000	0,0000000E+000	3,8500002E-001	1,000000000000000E+000
1	1	0	0	0	0	1	6,409610068515001E+003	3,204531963662969E-003	6,842592927588489E-001	3,8500002E-001	4,2069197E+000	12	6,842592895359323E-001	2	1,6177450E-003	2,727869124825253E-003	0,000000000000000E+000	5,487371789926186E+006	0,000000000000000E+000	3,845438402953029E-001	8,996430214182406E-001	0,000000000000000E+000	6,842592895359323E-001	6,842592895359323E-001	0,0000000E+000	0,0000000E+000	3,8500002E-001	1,000000000000000E+000
1	1	0	0	0	0	1	6,799610063793196E+003	3,204508165568113E-003	7,259181407865684E-001	3,8500002E-001	4,2169328E+000	12	7,259181369421840E-001	2	1,6215835E-003	2,903339977985411E-003	0,000000000000000E+000	5,694435516963012E+006	0,000000000000000E+000	3,845409845238857E-001	8,996212894177845E-001	0,000000000000000E+000	7,259181369421840E-001	7,259181369421840E-001	0,0000000E+000	0,0000000E+000	3,8500002E-001	1,000000000000000E+000
1	1	0	0	0	0	1	7,189610059071390E+003	3,204512374841505E-003	7,675769108069059E-001	3,8500002E-001	4,2302136E+000	12	7,675769063424495E-001	2	1,6266926E-003	3,079295360587464E-003	0,000000000000000E+000	5,851877216292896E+006	0,000000000000000E+000	3,845414896366988E-001	8,995995574580222E-001	0,000000000000000E+000	7,675769063424495E-001	7,675769063424495E-001	0,0000000E+000	0,0000000E+000	3,8500002E-001	1,000000000000000E+000
1	1	0	0	0	0	1	7,579610054349585E+003	3,204521402239799E-003	8,092355561478900E-001	3,8500002E-001	4,2502394E+000	12	8,092355510631974E-001	2	1,6343980E-003	3,255934997757077E-003	0,000000000000000E+000	5,918478315010452E+006	0,000000000000000E+000	3,845425729245072E-001	8,995778255633009E-001	0,000000000000000E+000	8,092355510631974E-001	8,092355510631974E-001	0,0000000E+000	0,0000000E+000	3,8500002E-001	1,000000000000000E+000
1	1	0	0	0	0	1	7,969610049627780E+003	3,204530018564728E-003	8,508942958863228E-001	3,8500002E-001	4,2858963E+000	12	8,508942901807502E-001	2	1,6481139E-003	3,433714116748310E-003	0,000000000000000E+000	5,802803183021755E+006	0,000000000000000E+000	3,845436068835111E-001	8,995560936193356E-001	0,000000000000000E+000	8,508942901807502E-001	8,508942901807502E-001	0,0000000E+000	0,0000000E+000	3,8500002E-001	1,000000000000000E+000
2	1	0	1	0	0	1	8,280895645858982E+003	2,526348836809397E-003	8,814811078461657E-001	4,3000197E+000	4,3013172E+000	12	8,814811016841454E-001	2	1,3039954E-003	3,565205496637467E-003	0,000000000000000E+000	5,840770652290173E+006	0,000000000000000E+000	3,031618640875670E-001	8,995401375225415E-001	0,000000000000000E+000	8,814811016841454E-001	8,814811016841454E-001	0,0000000E+000	4,3000197E+000	0,0000000E+000	1,000000000000000E+000
2	1	0	1	0	0	1	8,670895641137176E+003	1,761417120036152E-003	9,083934341977280E-001	4,3000197E+000	4,3013363E+000	12	9,083934276150338E-001	2	9,0917369E-004	3,680963796847635E-003	0,000000000000000E+000	6,018882770345020E+006	0,000000000000000E+000	2,113700569634364E-001	8,995260982795898E-001	0,000000000000000E+000	9,083934276150338E-001	9,083934276150338E-001	0,0000000E+000	4,3000197E+000	0,0000000E+000	1,000000000000000E+000
2	1	0	1	0	0	1	9,060895636415371E+003	1,349206242413984E-003	9,281489369417387E-001	4,3000197E+000	4,3013363E+000	12	9,281489299565989E-001	2	6,9640676E-004	3,765939155613559E-003	0,000000000000000E+000	6,149779856396536E+006	0,000000000000000E+000	1,619047510498903E-001	8,995157925074677E-001	0,000000000000000E+000	9,281489299565989E-001	9,281489299565989E-001	0,0000000E+000	4,3000197E+000	0,0000000E+000	1,000000000000000E+000
2	1	0	1	0	0	1	9,450895631693566E+003	1,089901190083888E-003	9,437627561666104E-001	4,3000197E+000	4,3012981E+000	12	9,437627486226124E-001	2	5,6255882E-004	3,833099383533370E-003	0,000000000000000E+000	6,253673819567495E+006	0,000000000000000E+000	1,307881443935439E-001	8,995076473104068E-001	0,000000000000000E+000	9,437627486226124E-001	9,437627486226124E-001	0,0000000E+000	4,3000197E+000	0,0000000E+000	1,000000000000000E+000
2	1	0	1	0	0	1	9,840895626971760E+003	9,158461449771292E-004	9,566511231344922E-001	4,3000197E+000	4,3012791E+000	12	9,566511151827055E-001	2	4,7271719E-004	3,888536457318666E-003	0,000000000000000E+000	6,339298815499199E+006	0,000000000000000E+000	1,099015387278547E-001	8,995009238888508E-001	0,000000000000000E+000	9,566511151827055E-001	9,566511151827055E-001	0,0000000E+000	4,3000197E+000	0,0000000E+000	1,000000000000000E+000
2	1	0	1	0	0	1	1,023089562224995E+004	7,864920857027173E-004	9,676063777524068E-001	4,3000197E+000	4,3013554E+000	12	9,676063694426945E-001	2	4,0595784E-004	3,935658857796183E-003	0,000000000000000E+000	6,410994055084149E+006	0,000000000000000E+000	9,437905142699152E-002	8,994952089060891E-001	0,000000000000000E+000	9,676063694426945E-001	9,676063694426945E-001	0,0000000E+000	4,3000197E+000	0,0000000E+000	1,000000000000000E+000
2	1	0	1	0	0	1	1,062089561752815E+004	6,899478195127514E-004	9,771408979122390E-001	4,3000197E+000	4,3013554E+000	12	9,771408892608919E-001	2	3,5612530E-004	3,976669964550201E-003	0,000000000000000E+000	6,474166179413748E+006	0,000000000000000E+000	8,279373934392999E-002	8,994902350720473E-001	0,000000000000000E+000	9,771408892608919E-001	9,771408892608919E-001	0,0000000E+000	4,3000197E+000	0,0000000E+000	1,000000000000000E+000
2	1	0	1	0	0	1	1,101089561280634E+004	6,164724069150785E-004	9,855689776388622E-001	4,3000197E+000	4,3013744E+000	12	9,855689686236060E-001	2	3,1820143E-004	4,012922108586590E-003	0,000000000000000E+000	6,529778227427799E+006	0,000000000000000E+000	7,397668972545952E-002	8,994858384302501E-001	0,000000000000000E+000	9,855689686236060E-001	9,855689686236060E-001	0,0000000E+000	4,3000197E+000	0,0000000E+000	1,000000000000000E+000
2	1	0	1	0	0	1	1,140089560808454E+004	5,572684613747729E-004	9,931463941550321E-001	4,3000197E+000	4,3012214E+000	12	9,931463848049038E-001	2	2,8763220E-004	4,045515104386895E-003	0,000000000000000E+000	6,581835651593860E+006	0,000000000000000E+000	6,687221617460760E-002	8,994818855504423E-001	0,000000000000000E+000	9,931463848049038E-001	9,931463848049038E-001	0,0000000E+000	4,3000197E+000	0,0000000E+000	1,000000000000000E+000
1	0	0	0	0	0	2	1,156029720615465E+004	-2,954732979337374E-006	9,960329429583351E-001	-3,8500002E-001	4,2653546E+000	12	-1,265027677185006E-005	3	-1,6438676E-003	4,057985459705496E-003	5,408729694351449E-008	6,600116487736575E+006	1,496097743275843E+003	-3,853999582794476E-001	8,994803797363624E-001	1,265027677185006E-005	0,000000000000000E+000	1,265027677185006E-005	0,0000000E+000	0,0000000E+000	-3,8500002E-001	1,000000000000000E+000
1	0	0	0	0	0	2	1,156110260614488E+004	-1,381017589072386E-005	9,959467206210096E-001	-3,8500002E-001	4,1998305E+000	12	-9,887261574798161E-005	3	-1,6186158E-003	4,057985459705496E-003	4,180980911948453E-007	6,600116487736575E+006	3,709115750480743E+003	-3,854002620649707E-001	8,994804247156156E-001	9,887261574798161E-005	0,000000000000000E+000	9,887261574798161E-005	0,0000000E+000	0,0000000E+000	-3,8500002E-001	1,000000000000000E+000
1	0	0	0	0	0	2	1,170611840438914E+004	-3,211725290882918E-003	9,804216540818413E-001	-3,8500002E-001	4,1499758E+000	12	-1,562393945453896E-002	3	-1,5994299E-003	4,057985459705496E-003	6,488046158649060E-005	6,600116487736575E+006	3,857267830043918E+005	-3,854070395721478E-001	8,994885236134269E-001	1,562393945453896E-002	0,000000000000000E+000	1,562393945453896E-002	0,0000000E+000	0,0000000E+000	-3,8500002E-001	1,000000000000000E+000
1	0	0	0	0	0	2	1,209611839966734E+004	-3,211722384411428E-003	9,386690048692425E-001	-3,8500002E-001	4,1482940E+000	12	-5,737658947083189E-002	3	-1,5987803E-003	4,057985459705496E-003	2,381121982022264E-004	6,600116487736575E+006	1,400372887628342E+006	-3,854066907955647E-001	8,995103045467625E-001	5,737658947083189E-002	0,000000000000000E+000	5,737658947083189E-002	0,0000000E+000	0,0000000E+000	-3,8500002E-001	1,000000000000000E+000
1	0	0	0	0	0	2	1,248611839494553E+004	-3,211746584021383E-003	8,969164497819145E-001	-3,8500002E-001	4,1469374E+000	12	-9,912914520835713E-002	3	-1,5982694E-003	4,057985459705496E-003	4,113054879727525E-004	6,600116487736575E+006	2,397365545317986E+006	-3,854095947487945E-001	8,995320854309963E-001	9,912914520835713E-002	0,000000000000000E+000	9,912914520835713E-002	0,0000000E+000	0,0000000E+000	-3,8500002E-001	1,000000000000000E+000
1	0	0	0	0	0	2	1,287611839022372E+004	-3,211755812337001E-003	8,551639126435552E-001	-3,8500002E-001	4,1410904E+000	12	-1,408816829696596E-001	3	-1,5960205E-003	4,057985459705496E-003	5,843368049720699E-004	6,600116487736575E+006	3,278349304124286E+006	-3,854107021466821E-001	8,995538663058665E-001	1,408816829696596E-001	0,000000000000000E+000	1,408816829696596E-001	0,0000000E+000	0,0000000E+000	-3,8500002E-001	1,000000000000000E+000
1	0	0	0	0	0	2	1,326611838550192E+004	-3,211746573350496E-003	8,134113940479706E-001	-3,8500002E-001	4,1310964E+000	12	-1,826342021857583E-001	3	-1,5921642E-003	4,057985459705496E-003	7,570311731768733E-004	6,600116487736575E+006	3,992049892084073E+006	-3,854095934682880E-001	8,995756471710638E-001	1,826342021857583E-001	0,000000000000000E+000	1,826342021857583E-001	0,0000000E+000	0,0000000E+000	-3,8500002E-001	1,000000000000000E+000
1	0	0	0	0	0	2	1,365611838078011E+004	-3,211741445299652E-003	7,716588062649651E-001	-3,8500002E-001	4,1168413E+000	12	-2,243867905914088E-001	3	-1,5866676E-003	4,057985459705496E-003	9,292148432844210E-004	6,600116487736575E+006	4,513987892053321E+006	-3,854089781021793E-001	8,995974280723538E-001	2,243867905914088E-001	0,000000000000000E+000	2,243867905914088E-001	0,0000000E+000	0,0000000E+000	-3,8500002E-001	1,000000000000000E+000
1	0	0	0	0	0	2	1,404611837605831E+004	-3,211749270192451E-003	7,299060323459373E-001	-3,8500002E-001	4,0952101E+000	12	-2,661395651323779E-001	3	-1,5783346E-003	4,057985459705496E-003	1,100652560434930E-003	6,600116487736575E+006	4,776554801708254E+006	-3,854099170893265E-001	8,996192090707444E-001	2,661395651323779E-001	0,000000000000000E+000	2,661395651323779E-001	0,0000000E+000	0,0000000E+000	-3,8500002E-001	1,000000000000000E+000
1	0	0	0	0	0	2	1,443611837133650E+004	-3,211734536268645E-003	6,881534254169266E-001	-3,8500002E-001	4,0586166E+000	12	-3,078921726835668E-001	3	-1,5642240E-003	4,057985459705496E-003	1,270869879804185E-003	6,600116487736575E+006	4,673336178713374E+006	-3,854081490184484E-001	8,996409899820222E-001	3,078921726835668E-001	0,000000000000000E+000	3,078921726835668E-001	0,0000000E+000	0,0000000E+000	-3,8500002E-001	1,000000000000000E+000
1	0	0	0	0	0	2	1,482611836661470E+004	-3,211755134529537E-003	6,464008434639374E-001	-3,8500002E-001	4,0185838E+000	12	-3,496447552595073E-001	3	-1,5488048E-003	4,057985459705496E-003	1,439395185399274E-003	6,600116487736575E+006	4,540665502741278E+006	-3,854106208097854E-001	8,996627708802708E-001	3,496447552595073E-001	0,000000000000000E+000	3,496447552595073E-001	0,0000000E+000	0,0000000E+000	-3,8500002E-001	1,000000000000000E+000
1	0	0	0	0	0	2	1,521611836189289E+004	-3,211729820400476E-003	6,046483334051884E-001	-3,8500002E-001	3,9921565E+000	12	-3,913972659409294E-001	3	-1,5386074E-003	4,057985459705496E-003	1,606541593565136E-003	6,600116487736575E+006	4,640493757803285E+006	-3,854075831142613E-001	8,996845517410147E-001	3,913972659409294E-001	0,000000000000000E+000	3,913972659409294E-001	0,0000000E+000	0,0000000E+000	-3,8500002E-001	1,000000000000000E+000
1	0	0	0	0	0	2	1,560611835717109E+004	-3,211762489330438E-003	5,628955982806467E-001	-3,8500002E-001	3,9759905E+000	12	-4,331500016875713E-001	3	-1,5323925E-003	4,057985459705496E-003	1,772844844660172E-003	6,600116487736575E+006	4,875924736435525E+006	-3,854115033859041E-001	8,997063327191677E-001	4,331500016875713E-001	0,000000000000000E+000	4,331500016875713E-001	0,0000000E+000	0,0000000E+000	-3,8500002E-001	1,000000000000000E+000
1	0	0	0	0	0	2	1,599611835244928E+004	-3,211741357823213E-003	5,211429157227013E-001	-3,8500002E-001	3,9608371E+000	12	-4,749026848660790E-001	3	-1,5265421E-003	4,057985459705496E-003	1,938521150440191E-003	6,600116487736575E+006	5,104081484533438E+006	-3,854089676050065E-001	8,997281136698984E-001	4,749026848660790E-001	0,000000000000000E+000	4,749026848660790E-001	0,0000000E+000	0,0000000E+000	-3,8500002E-001	1,000000000000000E+000
1	0	0	0	0	0	2	1,638611834772746E+004	-3,211723972580499E-003	4,793904587565627E-001	-3,8500002E-001	3,9413080E+000	12	-5,166551424533178E-001	3	-1,5190073E-003	4,057985459705496E-003	2,103479673822090E-003	6,600116487736575E+006	5,246909809234364E+006	-3,854068813760426E-001	8,997498945029456E-001	5,166551424533178E-001	0,000000000000000E+000	5,166551424533178E-001	0,0000000E+000	0,0000000E+000	-3,8500002E-001	1,000000000000000E+000
1	0	0	0	0	0	2	1,677611834300566E+004	-3,211752000050412E-003	4,376377891239838E-001	-3,8500002E-001	3,9143839E+000	12	-5,584078122847743E-001	3	-1,5086436E-003	4,057985459705496E-003	2,267464992962242E-003	6,600116487736575E+006	5,270614216772475E+006	-3,854102446722859E-001	8,997716754469337E-001	5,584078122847743E-001	0,000000000000000E+000	5,584078122847743E-001	0,0000000E+000	0,0000000E+000	-3,8500002E-001	1,000000000000000E+000
1	0	0	0	0	0	2	1,716611833828385E+004	-3,211704578273826E-003	3,958852308623062E-001	-3,8500002E-001	3,8815358E+000	12	-6,001603705464518E-001	3	-1,4959616E-003	4,057985459705496E-003	2,430175419688044E-003	6,600116487736575E+006	5,215526523713343E+006	-3,854045540590266E-001	8,997934563328234E-001	6,001603705464518E-001	0,000000000000000E+000	6,001603705464518E-001	0,0000000E+000	0,0000000E+000	-3,8500002E-001	1,000000000000000E+000
1	0	0	0	0	0	2	1,755611833356204E+004	-3,211724767413404E-003	3,541329391182346E-001	-3,8500002E-001	3,8428979E+000	12	-6,419126622905234E-001	3	-1,4810796E-003	4,057985459705496E-003	2,591387945817113E-003	6,600116487736575E+006	5,102457403636818E+006	-3,854069767558053E-001	8,998152370796798E-001	6,419126622905234E-001	0,000000000000000E+000	6,419126622905234E-001	0,0000000E+000	0,0000000E+000	-3,8500002E-001	1,000000000000000E+000
1	0	0	0	0	0	2	1,794611832884024E+004	-3,211717306180133E-003	3,123803900722961E-001	-3,8500002E-001	3,8063238E+000	12	-6,836652113364619E-001	3	-1,4669803E-003	4,057985459705496E-003	2,750989894419452E-003	6,600116487736575E+006	5,028277808624266E+006	-3,854060814078019E-001	8,998370179607620E-001	6,836652113364619E-001	0,000000000000000E+000	6,836652113364619E-001	0,0000000E+000	0,0000000E+000	-3,8500002E-001	1,000000000000000E+000
1	0	0	0	0	0	2	1,833611832411843E+004	-3,211715889629391E-003	2,706277880454130E-001	-3,8500002E-001	3,7767243E+000	12	-7,254178133633450E-001	3	-1,4555719E-003	4,057985459705496E-003	2,909232033755134E-003	6,600116487736575E+006	5,031119851171617E+006	-3,854059114217108E-001	8,998587988694825E-001	7,254178133633450E-001	0,000000000000000E+000	7,254178133633450E-001	0,0000000E+000	0,0000000E+000	-3,8500002E-001	1,000000000000000E+000
1	0	0	0	0	0	2	1,872611831939663E+004	-3,211741909990708E-003	2,288752170914113E-001	-3,8500002E-001	3,7513480E+000	12	-7,671703843173464E-001	3	-1,4458034E-003	4,057985459705496E-003	3,066345417251568E-003	6,600116487736575E+006	5,072699602397654E+006	-3,854090338651067E-001	8,998805797619933E-001	7,671703843173464E-001	0,000000000000000E+000	7,671703843173464E-001	0,0000000E+000	0,0000000E+000	-3,8500002E-001	1,000000000000000E+000
1	0	0	0	0	0	2	1,911611831467482E+004	-3,211724123135209E-003	1,871225944641911E-001	-3,8500002E-001	3,7261817E+000	12	-8,089230069445668E-001	3	-1,4360962E-003	4,057985459705496E-003	3,222410819250859E-003	6,600116487736575E+006	5,112460822915233E+006	-3,854068994424210E-001	8,999023606814602E-001	8,089230069445668E-001	0,000000000000000E+000	8,089230069445668E-001	0,0000000E+000	0,0000000E+000	-3,8500002E-001	1,000000000000000E+000
1	0	0	0	0	0	2	1,950611830995302E+004	-3,211699108521144E-003	1,453701588445322E-001	-3,8500002E-001	3,6988370E+000	12	-8,506754425642257E-001	3	-1,4255462E-003	4,057985459705496E-003	3,377384634244162E-003	6,600116487736575E+006	5,130066838330714E+006	-3,854038976886968E-001	8,999241415033717E-001	8,506754425642257E-001	0,000000000000000E+000	8,506754425642257E-001	0,0000000E+000	0,0000000E+000	-3,8500002E-001	1,000000000000000E+000
1	0	0	0	0	0	2	1,989611830523121E+004	-3,211723974966340E-003	1,036179037785729E-001	-3,8500002E-001	3,6684160E+000	12	-8,924276976301853E-001	3	-1,4138328E-003	4,057985459705496E-003	3,531137644249350E-003	6,600116487736575E+006	5,120895754518433E+006	-3,854068816621565E-001	8,999459222310945E-001	8,924276976301853E-001	0,000000000000000E+000	8,924276976301853E-001	0,0000000E+000	0,0000000E+000	-3,8500002E-001	1,000000000000000E+000
1	0	0	0	0	0	2	2,028611830050941E+004	-3,211735249219669E-003	6,186539762625098E-002	-3,8500002E-001	3,6387591E+000	12	-9,341802037825073E-001	3	-1,4024077E-003	4,057985459705496E-003	3,683624242277666E-003	6,600116487736575E+006	5,118520228058444E+006	-3,854082345725723E-001	8,999677030898005E-001	9,341802037825073E-001	0,000000000000000E+000	9,341802037825073E-001	0,0000000E+000	0,0000000E+000	-3,8500002E-001	1,000000000000000E+000
1	0	0	0	0	0	2	2,067611829578760E+004	-3,211713537547324E-003	2,011293562992083E-002	-3,8500002E-001	3,6201091E+000	12	-9,759326657788374E-001	3	-1,3952104E-003	4,057985459705496E-003	3,835072879355611E-003	6,600116487736575E+006	5,199694365163610E+006	-3,854056291718593E-001	8,999894839254718E-001	9,759326657788374E-001	0,000000000000000E+000	9,759326657788374E-001	0,0000000E+000	0,0000000E+000	-3,8500002E-001	1,000000000000000E+000
1	0	0	0	0	0	2	2,106611829106580E+004	-3,211717892694805E-003	-2,163938791803684E-002	-3,8500002E-001	3,6104972E+000	12	-1,017684989326795E+000	3	-1,3915079E-003	4,057985459705496E-003	3,986002972443943E-003	6,600116487736575E+006	5,346097562159029E+006	-3,854061517895634E-001	9,000112646889193E-001	1,017684989326795E+000	0,000000000000000E+000	1,017684989326795E+000	0,0000000E+000	0,0000000E+000	-3,8500002E-001	1,000000000000000E+000
1	0	0	0	0	0	2	2,145611828634399E+004	-3,211746921653549E-003	-6,339189882485734E-002	-3,8500002E-001	3,5956116E+000	12	-1,059437500233615E+000	3	-1,3857833E-003	4,057985459705496E-003	4,136455898768344E-003	6,600116487736575E+006	5,447112348193419E+006	-3,854096352646549E-001	9,000330455501055E-001	1,059437500233615E+000	0,000000000000000E+000	1,059437500233615E+000	0,0000000E+000	0,0000000E+000	-3,8500002E-001	1,000000000000000E+000
1	0	0	0	0	0	2	2,184517668163363E+004	-3,110930464469724E-003	-1,050437950095766E-001	-3,8500002E-001	3,5539546E+000	12	-1,101089396418334E+000	3	-1,3697237E-003	4,057985459705496E-003	4,285445569912268E-003	6,600116487736575E+006	5,343365736264357E+006	-3,854083434623283E-001	9,000547739240222E-001	1,101089396418334E+000	0,000000000000000E+000	1,101089396418334E+000	0,0000000E+000	0,0000000E+000	-3,8500002E-001	1,000000000000000E+000
1	0	0	0	0	0	2	2,215403987789416E+004	-2,416893744746844E-003	-1,381098756145686E-001	-3,8500002E-001	3,4887936E+000	12	-1,134155477023326E+000	3	-1,3446091E-003	4,057985459705496E-003	4,401840846399255E-003	6,600116487736575E+006	5,059424148568307E+006	-3,854080328505919E-001	9,000720233707259E-001	1,134155477023326E+000	0,000000000000000E+000	1,134155477023326E+000	0,0000000E+000	0,0000000E+000	-3,8500002E-001	1,000000000000000E+000
1	0	0	0	0	0	2	2,241250287476490E+004	-1,765983762224515E-003	-1,657800248140676E-001	-3,8500002E-001	3,4236138E+000	12	-1,161825626222825E+000	3	-1,3194733E-003	4,057985459705496E-003	4,497461469116943E-003	6,600116487736575E+006	4,795534059574266E+006	-3,854036555344121E-001	9,000864579440157E-001	1,161825626222825E+000	0,000000000000000E+000	1,161825626222825E+000	0,0000000E+000	0,0000000E+000	-3,8500002E-001	1,000000000000000E+000
1	0	0	0	0	0	2	2,258502827267611E+004	-1,248143702190783E-003	-1,842501166405893E-001	-3,8500002E-001	3,3584721E+000	12	-1,180295718049347E+000	3	-1,2943819E-003	4,057985459705496E-003	4,560064269090338E-003	6,600116487736575E+006	4,533194431274768E+006	-3,854079719931352E-001	9,000960931610944E-001	1,180295718049347E+000	0,000000000000000E+000	1,180295718049347E+000	0,0000000E+000	0,0000000E+000	-3,8500002E-001	1,000000000000000E+000
1	0	0	0	0	0	2	2,272592867097020E+004	-1,022700018725461E-003	-1,993345031544202E-001	-3,8500002E-001	3,2932348E+000	12	-1,195380104563178E+000	3	-1,2692371E-003	4,057985459705496E-003	4,610212471544728E-003	6,600116487736575E+006	4,292381331621843E+006	-3,854074315368741E-001	9,001039621711635E-001	1,195380104563178E+000	0,000000000000000E+000	1,195380104563178E+000	0,0000000E+000	0,0000000E+000	-3,8500002E-001	1,000000000000000E+000
1	0	0	0	0	0	2	2,284889106948147E+004	-9,580068334605959E-004	-2,124985454796089E-001	-3,8500002E-001	3,2280929E+000	12	-1,208544146888367E+000	3	-1,2441194E-003	4,057985459705496E-003	4,653111968686063E-003	6,600116487736575E+006	4,074882924099775E+006	-3,854038220720890E-001	9,001108294031529E-001	1,208544146888367E+000	0,000000000000000E+000	1,208544146888367E+000	0,0000000E+000	0,0000000E+000	-3,8500002E-001	1,000000000000000E+000
1	0	0	0	0	0	2	2,295854026815388E+004	-8,471249901652336E-004	-2,242372557092491E-001	-3,8500002E-001	3,1628175E+000	12	-1,220282857118007E+000	3	-1,2189726E-003	4,057985459705496E-003	4,690596070609012E-003	6,600116487736575E+006	3,877411678637504E+006	-3,854071885456618E-001	9,001169530879916E-001	1,220282857118007E+000	0,000000000000000E+000	1,220282857118007E+000	0,0000000E+000	0,0000000E+000	-3,8500002E-001	1,000000000000000E+000
1	0	0	0	0	0	2	2,306159526690620E+004	-7,912119783312083E-004	-2,352700342891564E-001	-3,8500002E-001	3,0975802E+000	12	-1,231315635697915E+000	3	-1,1938183E-003	4,057985459705496E-003	4,725121662388269E-003	6,600116487736575E+006	3,699452023032350E+006	-3,854035066812719E-001	9,001227085123608E-001	1,231315635697915E+000	0,000000000000000E+000	1,231315635697915E+000	0,0000000E+000	0,0000000E+000	-3,8500002E-001	1,000000000000000E+000
1	0	0	0	0	0	2	2,315570306576682E+004	-7,518975950976213E-004	-2,453448550488469E-001	-3,8500002E-001	3,0324576E+000	12	-1,241390456457605E+000	3	-1,1687147E-003	4,057985459705496E-003	4,755981859383820E-003	6,600116487736575E+006	3,537461507082060E+006	-3,854018531080133E-001	9,001279642028013E-001	1,241390456457605E+000	0,000000000000000E+000	1,241390456457605E+000	0,0000000E+000	0,0000000E+000	-3,8500002E-001	1,000000000000000E+000
1	1	0	1	0	1	1	2,320380406518443E+004	8,758874519003762E-007	-2,504913199089351E-001	3,8500002E-001	3,0364895E+000	12	1,495415017008781E-006	4	1,1676394E-003	4,536891123194607E-009	0,000000000000000E+000	3,504525876519067E+002	0,000000000000000E+000	3,845359607950102E-001	9,001306489380252E-001	0,000000000000000E+000	1,495415017008781E-006	1,495415017008781E-006	0,0000000E+000	0,0000000E+000	3,8500002E-001	2,000000000000000E+000
1	1	0	1	0	1	1	2,320409146518097E+004	3,225831707318624E-006	-2,504606207758867E-001	3,8500002E-001	3,1023765E+000	12	3,219454806546370E-005	4	1,1929761E-003	9,900238132589607E-008	0,000000000000000E+000	1,426492082084975E+003	0,000000000000000E+000	3,845362347228812E-001	9,001306329233344E-001	0,000000000000000E+000	3,219454806546370E-005	3,219454806546370E-005	0,0000000E+000	0,0000000E+000	3,8500002E-001	2,000000000000000E+000
1	1	0	1	0	1	1	2,320460506517475E+004	5,127191629674700E-006	-2,504057593802247E-001	3,8500002E-001	3,1676712E+000	12	8,705594372749327E-005	4	1,2180943E-003	2,712609174843244E-007	0,000000000000000E+000	2,138627105964887E+003	0,000000000000000E+000	3,845393768104152E-001	9,001306043040150E-001	0,000000000000000E+000	8,705594372749327E-005	8,705594372749327E-005	0,0000000E+000	0,0000000E+000	3,8500002E-001	2,000000000000000E+000
1	1	0	1	0	1	1	2,320536246516556E+004	7,349113765690062E-006	-2,503248559377376E-001	3,8500002E-001	3,2330804E+000	12	1,679593862146139E-004	4	1,2432702E-003	5,305472025452309E-007	0,000000000000000E+000	2,852780406116809E+003	0,000000000000000E+000	3,845466553646226E-001	9,001305620994479E-001	0,000000000000000E+000	1,679593862146139E-004	1,679593862146139E-004	0,0000000E+000	0,0000000E+000	3,8500002E-001	2,000000000000000E+000
1	1	0	1	0	1	1	2,320642566515271E+004	9,998145285579894E-006	-2,502112878855169E-001	3,8500002E-001	3,2986424E+000	12	2,815274384352895E-004	4	1,2684733E-003	9,019259879327151E-007	0,000000000000000E+000	3,652057578394817E+003	0,000000000000000E+000	3,845440540780768E-001	9,001305028548676E-001	0,000000000000000E+000	2,815274384352895E-004	2,815274384352895E-004	0,0000000E+000	0,0000000E+000	3,8500002E-001	2,000000000000000E+000
1	1	0	1	0	1	1	2,320786006513535E+004	1,367266100645065E-005	-2,500580699698760E-001	3,8500002E-001	3,3640900E+000	12	4,347453540762266E-004	4	1,2936393E-003	1,412983073507389E-006	0,000000000000000E+000	4,563430214732562E+003	0,000000000000000E+000	3,845435954495777E-001	9,001304229263057E-001	0,000000000000000E+000	4,347453540762266E-004	4,347453540762266E-004	0,0000000E+000	0,0000000E+000	3,8500002E-001	2,000000000000000E+000
1	1	0	1	0	1	1	2,320979386511195E+004	1,850067760712571E-005	-2,498515062120209E-001	3,8500002E-001	3,4296329E+000	12	6,413091119312578E-004	4	1,3188332E-003	2,115531702923808E-006	0,000000000000000E+000	5,651615065930546E+003	0,000000000000000E+000	3,845406477138270E-001	9,001303151690371E-001	0,000000000000000E+000	6,413091119312578E-004	6,413091119312578E-004	0,0000000E+000	0,0000000E+000	3,8500002E-001	2,000000000000000E+000
1	1	0	1	0	1	1	2,321261686507775E+004	2,913972566028436E-005	-2,495499611140837E-001	3,8500002E-001	3,4948702E+000	12	9,428542098684445E-004	4	1,3439239E-003	3,161076306028482E-006	0,000000000000000E+000	7,164814157250133E+003	0,000000000000000E+000	3,845418388948862E-001	9,001301578632421E-001	0,000000000000000E+000	9,428542098684445E-004	9,428542098684445E-004	0,0000000E+000	0,0000000E+000	3,8500002E-001	2,000000000000000E+000
1	1	0	1	0	1	1	2,322031446498455E+004	1,421523431274626E-004	-2,487277231187075E-001	3,8500002E-001	3,5601265E+000	12	1,765092205244634E-003	4	1,3690180E-003	6,071020567245965E-006	0,000000000000000E+000	1,178914359673052E+004	0,000000000000000E+000	3,845419608125554E-001	9,001297289297181E-001	0,000000000000000E+000	1,765092205244634E-003	1,765092205244634E-003	0,0000000E+000	0,0000000E+000	3,8500002E-001	2,000000000000000E+000
1	1	0	1	0	1	1	2,341579786261776E+004	3,204493362469806E-003	-2,278467653720760E-001	3,8500002E-001	3,6198797E+000	12	2,264604995187620E-002	4	1,3919857E-003	8,139415608845805E-005	0,000000000000000E+000	1,361595607578224E+005	0,000000000000000E+000	3,845392081520673E-001	9,001188360460990E-001	0,000000000000000E+000	2,264604995187620E-002	2,264604995187620E-002	0,0000000E+000	0,0000000E+000	3,8500002E-001	2,000000000000000E+000
1	1	0	1	0	1	1	2,380579785789596E+004	3,204506126938595E-003	-1,861881300027652E-001	3,8500002E-001	3,6467276E+000	12	6,430468532118698E-002	4	1,4023153E-003	2,328154226428662E-004	0,000000000000000E+000	3,700399724465645E+005	0,000000000000000E+000	3,845407398883405E-001	9,000971041565795E-001	0,000000000000000E+000	6,430468532118698E-002	6,430468532118698E-002	0,0000000E+000	0,0000000E+000	3,8500002E-001	2,000000000000000E+000
1	1	0	1	0	1	1	2,419579785317415E+004	3,204517231189542E-003	-1,445294498598294E-001	3,8500002E-001	3,6650145E+000	12	1,059633654641227E-001	4	1,4093523E-003	3,852010463321740E-004	0,000000000000000E+000	5,924461476880709E+005	0,000000000000000E+000	3,845420723984704E-001	9,000753722437032E-001	0,000000000000000E+000	1,059633654641227E-001	1,059633654641227E-001	0,0000000E+000	0,0000000E+000	3,8500002E-001	2,000000000000000E+000
1	1	0	1	0	1	1	2,458579784845241E+004	3,204533356553978E-003	-1,028706316621966E-001	3,8500002E-001	3,6725051E+000	12	1,476221836617556E-001	4	1,4122399E-003	5,380550678633656E-004	0,000000000000000E+000	8,158711424055313E+005	0,000000000000000E+000	3,845440074422261E-001	9,000536402588084E-001	0,000000000000000E+000	1,476221836617556E-001	1,476221836617556E-001	0,0000000E+000	0,0000000E+000	3,8500002E-001	2,000000000000000E+000
1	1	0	1	0	1	1	2,497579784373060E+004	3,204520444318652E-003	-6,121169845656720E-002	3,8500002E-001	3,6832252E+000	12	1,892811168673849E-001	4	1,4163565E-003	6,912635091157437E-004	0,000000000000000E+000	1,029172158730627E+006	0,000000000000000E+000	3,845424579739682E-001	9,000319082139179E-001	0,000000000000000E+000	1,892811168673849E-001	1,892811168673849E-001	0,0000000E+000	0,0000000E+000	3,8500002E-001	2,000000000000000E+000
1	1	0	1	0	1	1	2,536579783900880E+004	3,204553637680080E-003	-1,955269288224644E-002	3,8500002E-001	3,7009008E+000	12	2,309401224417057E-001	4	1,4231682E-003	8,450748883655249E-004	0,000000000000000E+000	1,223032717590666E+006	0,000000000000000E+000	3,845464411773878E-001	9,000101761312751E-001	0,000000000000000E+000	2,309401224417057E-001	2,309401224417057E-001	0,0000000E+000	0,0000000E+000	3,8500002E-001	2,000000000000000E+000
1	1	0	1	0	1	1	2,575579783428699E+004	3,204562457947268E-003	2,210662020114395E-002	3,8500002E-001	3,7247486E+000	12	2,725994355250961E-001	4	1,4323428E-003	9,997772119446384E-004	0,000000000000000E+000	1,394725889428110E+006	0,000000000000000E+000	3,845474996094631E-001	8,999884438882153E-001	0,000000000000000E+000	2,725994355250961E-001	2,725994355250961E-001	0,0000000E+000	0,0000000E+000	3,8500002E-001	2,000000000000000E+000
1	1	0	1	0	1	1	2,614579782956518E+004	3,204556625857949E-003	6,376596330622170E-002	3,8500002E-001	3,7494943E+000	12	3,142587786301739E-001	4	1,4418560E-003	1,155506928404566E-003	0,000000000000000E+000	1,553245237489206E+006	0,000000000000000E+000	3,845467997587364E-001	8,999667116294943E-001	0,000000000000000E+000	3,142587786301739E-001	3,142587786301739E-001	0,0000000E+000	0,0000000E+000	3,8500002E-001	2,000000000000000E+000
1	1	0	1	0	1	1	2,653579782484338E+004	3,204575207605958E-003	1,054252179903752E-001	3,8500002E-001	3,7717943E+000	12	3,559180333143274E-001	4	1,4504398E-003	1,312215218909141E-003	0,000000000000000E+000	1,706889976947509E+006	0,000000000000000E+000	3,845490295685244E-001	8,999449794168993E-001	0,000000000000000E+000	3,559180333143274E-001	3,559180333143274E-001	0,0000000E+000	0,0000000E+000	3,8500002E-001	2,000000000000000E+000
1	1	0	1	0	1	1	2,692579782012157E+004	3,204542805656791E-003	1,470843546587411E-001	3,8500002E-001	3,7928712E+000	12	3,975771699826933E-001	4	1,4585302E-003	1,469814462789423E-003	0,000000000000000E+000	1,854603488532492E+006	0,000000000000000E+000	3,845451413345773E-001	8,999232472658693E-001	0,000000000000000E+000	3,975771699826933E-001	3,975771699826933E-001	0,0000000E+000	0,0000000E+000	3,8500002E-001	2,000000000000000E+000
1	1	0	1	0	1	1	2,731579781539977E+004	3,204530829578638E-003	1,887434253686302E-001	3,8500002E-001	3,8145788E+000	12	4,392362406925824E-001	4	1,4668723E-003	1,628305342191063E-003	0,000000000000000E+000	1,992877695743627E+006	0,000000000000000E+000	3,845437042051816E-001	8,999015151492474E-001	0,000000000000000E+000	4,392362406925824E-001	4,392362406925824E-001	0,0000000E+000	0,0000000E+000	3,8500002E-001	2,000000000000000E+000
1	1	0	1	0	1	1	2,770579781067796E+004	3,204585092650519E-003	2,304028523165832E-001	3,8500002E-001	3,8391719E+000	12	4,808956676405354E-001	4	1,4763543E-003	1,787756647586121E-003	0,000000000000000E+000	2,116297552704295E+006	0,000000000000000E+000	3,845502157738862E-001	8,998797828467884E-001	0,000000000000000E+000	4,808956676405354E-001	4,808956676405354E-001	0,0000000E+000	0,0000000E+000	3,8500002E-001	2,000000000000000E+000
1	1	0	1	0	1	1	2,809579780595616E+004	3,204564178266459E-003	2,720620990142656E-001	3,8500002E-001	3,8695738E+000	12	5,225549143382178E-001	4	1,4880358E-003	1,948348378161247E-003	0,000000000000000E+000	2,217227649535328E+006	0,000000000000000E+000	3,845477060477686E-001	8,998580506383598E-001	0,000000000000000E+000	5,225549143382178E-001	5,225549143382178E-001	0,0000000E+000	0,0000000E+000	3,8500002E-001	2,000000000000000E+000
1	1	0	1	0	1	1	2,848579780123435E+004	3,204550490803189E-003	3,137212321003543E-001	3,8500002E-001	3,9074855E+000	12	5,642140474243063E-001	4	1,5026082E-003	2,110383345570288E-003	0,000000000000000E+000	2,291592800480477E+006	0,000000000000000E+000	3,845460635521563E-001	8,998363184891984E-001	0,000000000000000E+000	5,642140474243063E-001	5,642140474243063E-001	0,0000000E+000	0,0000000E+000	3,8500002E-001	2,000000000000000E+000
1	1	0	1	0	1	1	2,887579779651255E+004	3,204550929152303E-003	3,553805064777086E-001	3,8500002E-001	3,9443655E+000	12	6,058733218016605E-001	4	1,5167905E-003	2,274027202160805E-003	0,000000000000000E+000	2,362494820224565E+006	0,000000000000000E+000	3,845461161540506E-001	8,998145862663303E-001	0,000000000000000E+000	6,058733218016605E-001	6,058733218016605E-001	0,0000000E+000	0,0000000E+000	3,8500002E-001	2,000000000000000E+000
1	1	0	1	0	1	1	2,926579779179074E+004	3,204566851741738E-003	3,970395118944512E-001	3,8500002E-001	3,9710412E+000	12	6,475323272184031E-001	4	1,5270561E-003	2,438973138621154E-003	0,000000000000000E+000	2,454030771016508E+006	0,000000000000000E+000	3,845480268648059E-001	8,997928541837696E-001	0,000000000000000E+000	6,475323272184031E-001	6,475323272184031E-001	0,0000000E+000	0,0000000E+000	3,8500002E-001	2,000000000000000E+000
1	1	0	1	0	1	1	2,965579778706894E+004	3,204529751044181E-003	4,386986557609538E-001	3,8500002E-001	3,9912584E+000	12	6,891914710849056E-001	4	1,5348127E-003	2,604869743949678E-003	0,000000000000000E+000	2,557480091819188E+006	0,000000000000000E+000	3,845435747810451E-001	8,997711220289846E-001	0,000000000000000E+000	6,891914710849056E-001	6,891914710849056E-001	0,0000000E+000	0,0000000E+000	3,8500002E-001	2,000000000000000E+000
1	1	0	1	0	1	1	3,004579778234713E+004	3,204566202675303E-003	4,803578429742604E-001	3,8500002E-001	4,0072527E+000	12	7,308506580849138E-001	4	1,5409808E-003	2,771512615859160E-003	0,000000000000000E+000	2,668082672665255E+006	0,000000000000000E+000	3,845479489768328E-001	8,997493898515869E-001	0,000000000000000E+000	7,308506580849138E-001	7,308506580849138E-001	0,0000000E+000	0,0000000E+000	3,8500002E-001	2,000000000000000E+000
1	1	0	1	0	1	1	3,043579777762532E+004	3,204570307746530E-003	5,220173790850673E-001	3,8500002E-001	4,0214119E+000	12	7,725101935752494E-001	4	1,5464277E-003	2,938775295432869E-003	0,000000000000000E+000	2,780247227521996E+006	0,000000000000000E+000	3,845484415853859E-001	8,997276574921813E-001	0,000000000000000E+000	7,725101935752494E-001	7,725101935752494E-001	0,0000000E+000	0,0000000E+000	3,8500002E-001	2,000000000000000E+000
1	1	0	1	0	1	1	3,082579777290352E+004	3,204601910624239E-003	5,636768208908836E-001	3,8500002E-001	4,0377693E+000	12	8,141696347609542E-001	4	1,5527332E-003	3,106655463290255E-003	0,000000000000000E+000	2,883033041350801E+006	0,000000000000000E+000	3,845522339307570E-001	8,997059251819715E-001	0,000000000000000E+000	8,141696347609542E-001	8,141696347609542E-001	0,0000000E+000	0,0000000E+000	3,8500002E-001	2,000000000000000E+000
1	1	0	1	0	1	1	3,121579776818171E+004	3,204580597443713E-003	6,053364337322017E-001	3,8500002E-001	4,0631266E+000	12	8,558292469824036E-001	4	1,5624741E-003	3,275387128739000E-003	0,000000000000000E+000	2,956803603961740E+006	0,000000000000000E+000	3,845496763490629E-001	8,996841927825382E-001	0,000000000000000E+000	8,558292469824036E-001	8,558292469824036E-001	0,0000000E+000	0,0000000E+000	3,8500002E-001	2,000000000000000E+000
1	1	0	1	0	1	1	3,160579776345991E+004	3,204571653970414E-003	6,469957978077266E-001	3,8500002E-001	4,1109176E+000	12	8,974886104365335E-001	4	1,5808477E-003	3,445622214319907E-003	0,000000000000000E+000	2,964754767016849E+006	0,000000000000000E+000	3,845486031322540E-001	8,996624605128775E-001	0,000000000000000E+000	8,974886104365335E-001	8,974886104365335E-001	0,0000000E+000	0,0000000E+000	3,8500002E-001	2,000000000000000E+000
1	1	0	1	0	1	1	3,199320335876949E+004	3,204589271492428E-003	6,883785991605685E-001	3,8500002E-001	4,1700401E+000	12	9,388714111724410E-001	4	1,6035920E-003	3,617123560746263E-003	0,000000000000000E+000	2,941858486268379E+006	0,000000000000000E+000	3,845507172349213E-001	8,996408725165586E-001	0,000000000000000E+000	9,388714111724410E-001	9,388714111724410E-001	0,0000000E+000	0,0000000E+000	3,8500002E-001	2,000000000000000E+000
1	1	0	1	0	1	1	3,238320335404768E+004	3,204578581404355E-003	7,300384207837516E-001	3,8500002E-001	4,1996965E+000	12	9,805312321737039E-001	4	1,6149910E-003	3,791659154560592E-003	0,000000000000000E+000	2,995084402391520E+006	0,000000000000000E+000	3,845494344243370E-001	8,996191400082109E-001	0,000000000000000E+000	9,805312321737039E-001	9,805312321737039E-001	0,0000000E+000	0,0000000E+000	3,8500002E-001	2,000000000000000E+000
1	1	0	1	0	1	1	3,277320334939864E+004	3,204592155565818E-003	7,716980178380476E-001	3,8500002E-001	4,2082000E+000	12	1,022190828607436E+000	4	1,6182677E-003	3,966819026539409E-003	0,000000000000000E+000	3,099969389532702E+006	0,000000000000000E+000	3,845510623910732E-001	8,995974076170131E-001	0,000000000000000E+000	1,022190828607436E+000	1,022190828607436E+000	0,0000000E+000	0,0000000E+000	3,8500002E-001	2,000000000000000E+000
1	1	0	1	0	1	1	3,316320335012507E+004	3,204601655771335E-003	8,133576215577870E-001	3,8500002E-001	4,2174106E+000	12	1,063850431706476E+000	4	1,6218146E-003	4,142326868396248E-003	0,000000000000000E+000	3,201468844795984E+006	0,000000000000000E+000	3,845521979762759E-001	8,995756752223383E-001	0,000000000000000E+000	1,063850431706476E+000	1,063850431706476E+000	0,0000000E+000	0,0000000E+000	3,8500002E-001	2,000000000000000E+000
1	1	0	1	0	1	1	3,355320335085150E+004	3,204600750335389E-003	8,550173333886051E-001	3,8500002E-001	4,2322578E+000	12	1,105510142917802E+000	4	1,6275236E-003	4,318328050478641E-003	0,000000000000000E+000	3,286052554758154E+006	0,000000000000000E+000	3,845520893239626E-001	8,995539427712655E-001	0,000000000000000E+000	1,105510142917802E+000	1,105510142917802E+000	0,0000000E+000	0,0000000E+000	3,8500002E-001	2,000000000000000E+000
1	1	0	1	0	1	1	3,394320335157793E+004	3,204555800555481E-003	8,966768492186964E-001	3,8500002E-001	4,2618003E+000	12	1,147169658126890E+000	4	1,6388613E-003	4,495228992667858E-003	0,000000000000000E+000	3,328687682521857E+006	0,000000000000000E+000	3,845466953503837E-001	8,995322104224397E-001	0,000000000000000E+000	1,147169658126890E+000	1,147169658126890E+000	0,0000000E+000	0,0000000E+000	3,8500002E-001	2,000000000000000E+000
1	0	0	0	0	1	2	3,421196335207846E+004	-2,141076657507155E-008	9,253855170619852E-001	-3,8500002E-001	4,2907066E+000	12	-2,141076657507155E-008	5	-1,6536115E-003	4,618143136323607E-003	9,186731819385032E-011	3,310375372108281E+006	0,000000000000000E+000	-3,853937800460656E-001	8,995172340893868E-001	2,141076657507155E-008	0,000000000000000E+000	2,141076657507155E-008	0,0000000E+000	0,0000000E+000	-3,8500002E-001	2,000000000000000E+000
1	0	0	0	0	1	2	3,421222695207904E+004	-3,768244862556458E-006	9,253572979719937E-001	-3,8500002E-001	4,2250156E+000	12	-2,824050118360255E-005	5	-1,6282732E-003	4,618143136323607E-003	1,199655377410905E-007	3,310375372108281E+006	1,547636862587469E+003	-3,853886789828493E-001	8,995172488103238E-001	2,824050118360255E-005	0,000000000000000E+000	2,824050118360255E-005	0,0000000E+000	0,0000000E+000	-3,8500002E-001	2,000000000000000E+000
1	0	0	0	0	1	2	3,422158415209642E+004	-5,469599157439338E-004	9,243555757013990E-001	-3,8500002E-001	4,1594729E+000	12	-1,029962786580125E-003	5	-1,6030364E-003	4,618143136323607E-003	4,292531023531069E-006	3,310375372108281E+006	2,825391841378803E+004	-3,853941307874414E-001	8,995177713746738E-001	1,029962786580125E-003	0,000000000000000E+000	1,029962786580125E-003	0,0000000E+000	0,0000000E+000	-3,8500002E-001	2,000000000000000E+000
1	0	0	0	0	1	2	3,450666915262747E+004	-2,832042826852865E-003	8,938358973457846E-001	-3,8500002E-001	4,1533771E+000	12	-3,154964159688851E-002	5	-1,6006967E-003	4,618143136323607E-003	1,310404473430613E-004	3,310375372108281E+006	8,270520529689569E+005	-3,853964269458745E-001	8,995336924501558E-001	3,154964159688851E-002	0,000000000000000E+000	3,154964159688851E-002	2,6830702E+000	0,0000000E+000	-3,8500002E-001	2,000000000000000E+000