File: example/operando/EC/220726cell4operandoxas_C06.mpt
EC-Lab ASCII FILE
Nb header lines : 82

Galvanostatic Cycling with Potential Limitation

Run on channel : 6 (SN 6042)
User :
CE vs. WE compliance from -10 V to 10 V
Electrode connection : standard
Potential control : Ewe
Ewe ctrl range : min = 0,00 V, max = 5,00 V
Safety Limits :
	Do not start on E overload
Acquisition started on : 07/26/2022 22:38:30.190
Loaded Setting File :  C:\Users\Rock-adm\Desktop\electrochem_VMP\220725PEEKMAK_LNO\220725cell1operandoxas_C05.mpr
Saved on :
	File : 220726cell4operandoxas_C06.mpr
	Directory : C:\Users\Rock-adm\Desktop\electrochem_VMP\220725PEEKMAK_LNO\
	Host : 172.19.31.21
Device : VMP3 (SN 0198)
Address : USB
EC-Lab for windows v11.43 (software)
Internet server v11.40 (firmware)
Command interpretor v11.40 (firmware)
Electrode material :
Initial state :
Electrolyte :
Comments : Li-ion 18650 1.35 A.h
Comments : GITT
Mass of active material : 7000,000 mg
 at x = 1,000
Molecular weight of active material (at x = 0) : 90,930 g/mol
Atomic weight of intercalated ion : 6,940 g/mol
Acquisition started at : xo = 0,900
Number of e- transfered per intercalated ion : 1
for DX = 1, DQ = 1916,936 mA.h
Battery capacity : 0,000 A.h
Electrode surface area : 1,000 cm²
Characteristic mass : 1,000 g
Volume (V) : 1,000 cm³
Record Power
Cycle Definition : Charge/Discharge alternance
Ns                  0                   1                   2                   3                   4
Set I/C             I                   I                   I                   I                   I
Is                  0,000               154,000             -154,000            385,000             -385,000
unit Is             mA                  µA                  µA                  µA                  µA
vs.                 <None>              <None>              <None>              <None>              <None>
N                   1,00                1,00                1,00                1,00                1,00
I sign              > 0                 > 0                 > 0                 > 0                 > 0
t1 (h:m:s)          0:00:0,0000         1000:00:0,0000      1000:00:0,0000      1000:00:0,0000      1000:00:0,0000
I Range             100 µA              100 µA              100 µA              1 mA                1 mA
Bandwidth           5                   5                   5                   5                   5
dE1 (mV)            0,00                5,00                5,00                5,00                5,00
dt1 (s)             0,0000              30,0000             30,0000             30,0000             30,0000
EM (V)              0,000               4,300               3,000               4,300               3,000
tM (h:m:s)          0:00:0,0000         0:00:0,0000         0:00:0,0000         0:00:0,0000         0:00:0,0000
Im                  0,000               0,000               0,000               0,000               0,000
unit Im             mA                  mA                  mA                  mA                  mA
dI/dt               0,000               0,000               0,000               0,000               0,000
dunit dI/dt         mA/s                mA/s                mA/s                mA/s                mA/s
E range min (V)     0,000               0,000               0,000               0,000               0,000
E range max (V)     5,000               5,000               5,000               5,000               5,000
dq                  0,000               1,000               1,000               1,000               1,000
unit dq             A.h                 A.h                 A.h                 A.h                 A.h
dtq (s)             0,0000              120,0000            120,0000            120,0000            120,0000
dQM                 0,000               0,000               0,000               0,000               0,000
unit dQM            mA.h                mA.h                mA.h                mA.h                mA.h
dxM                 0,000               0,000               0,000               0,000               0,000
delta SoC (%)       pass                pass                pass                pass                pass
tR (h:m:s)          1:00:10,0000        0:00:0,0000         0:00:0,0000         0:00:0,0000         0:00:0,0000
dER/dt (mV/h)       0,0                 0,1                 0,1                 0,1                 0,1
dER (mV)            0,00                0,00                0,00                0,00                0,00
dtR (s)             1,0000              120,0000            120,0000            120,0000            120,0000
EL (V)              pass                pass                pass                pass                pass
goto Ns'            0                   0                   1                   0                   3
nc cycles           0                   0                   1                   0                   10

Modify on : 07/26/2022 22:39
Ns                  0                   1                   2                   3                   4
dER (mV)            1,00

mode	ox/red	error	control changes	Ns changes	counter inc.	Ns	time/s	dq/mA.h	(Q-Qo)/mA.h	control/V/mA	Ewe/V	I Range	Q charge/discharge/mA.h	half cycle	P/W	<I>/mA	cycle number	Energy charge/W.h	Energy discharge/W.h	Capacitance charge/µF	Capacitance discharge/µF	x	Q discharge/mA.h	Q charge/mA.h	Capacity/mA.h	Efficiency/%	control/V	control/mA
3	1	0	0	0	0	0	0,000000000000000E+000	0,000000000000000E+000	0,000000000000000E+000	0,0000000E+000	3,4912014E+000	14	0,000000000000000E+000	0	0,0000000E+000	0,000000000000000E+000	0,000000000000000E+000	0,000000000000000E+000	0,000000000000000E+000	0,000000000000000E+000	0,000000000000000E+000	8,999999761581421E-001	0,000000000000000E+000	0,000000000000000E+000	0,000000000000000E+000	0,0000000E+000	0,0000000E+000	0,0000000E+000
3	1	0	0	0	0	0	5,499999861058313E+001	0,000000000000000E+000	0,000000000000000E+000	0,0000000E+000	3,4910676E+000	14	0,000000000000000E+000	0	0,0000000E+000	0,000000000000000E+000	0,000000000000000E+000	0,000000000000000E+000	0,000000000000000E+000	0,000000000000000E+000	0,000000000000000E+000	8,999999761581421E-001	0,000000000000000E+000	0,000000000000000E+000	0,000000000000000E+000	0,0000000E+000	0,0000000E+000	0,0000000E+000
3	1	0	0	0	0	0	1,099999972211663E+002	0,000000000000000E+000	0,000000000000000E+000	0,0000000E+000	3,4907045E+000	14	0,000000000000000E+000	0	0,0000000E+000	0,000000000000000E+000	0,000000000000000E+000	0,000000000000000E+000	0,000000000000000E+000	0,000000000000000E+000	0,000000000000000E+000	8,999999761581421E-001	0,000000000000000E+000	0,000000000000000E+000	0,000000000000000E+000	0,0000000E+000	0,0000000E+000	0,0000000E+000
3	1	0	0	0	0	0	1,649999958317494E+002	0,000000000000000E+000	0,000000000000000E+000	0,0000000E+000	3,4909148E+000	14	0,000000000000000E+000	0	0,0000000E+000	0,000000000000000E+000	0,000000000000000E+000	0,000000000000000E+000	0,000000000000000E+000	0,000000000000000E+000	0,000000000000000E+000	8,999999761581421E-001	0,000000000000000E+000	0,000000000000000E+000	0,000000000000000E+000	0,0000000E+000	0,0000000E+000	0,0000000E+000
3	1	0	0	0	0	0	2,199999944423325E+002	0,000000000000000E+000	0,000000000000000E+000	0,0000000E+000	3,4910102E+000	14	0,000000000000000E+000	0	0,0000000E+000	0,000000000000000E+000	0,000000000000000E+000	0,000000000000000E+000	0,000000000000000E+000	0,000000000000000E+000	0,000000000000000E+000	8,999999761581421E-001	0,000000000000000E+000	0,000000000000000E+000	0,000000000000000E+000	0,0000000E+000	0,0000000E+000	0,0000000E+000
3	1	0	0	0	0	0	2,749999930529157E+002	0,000000000000000E+000	0,000000000000000E+000	0,0000000E+000	3,4909720E+000	14	0,000000000000000E+000	0	0,0000000E+000	0,000000000000000E+000	0,000000000000000E+000	0,000000000000000E+000	0,000000000000000E+000	0,000000000000000E+000	0,000000000000000E+000	8,999999761581421E-001	0,000000000000000E+000	0,000000000000000E+000	0,000000000000000E+000	0,0000000E+000	0,0000000E+000	0,0000000E+000
3	1	0	0	0	0	0	3,299999916634988E+002	0,000000000000000E+000	0,000000000000000E+000	0,0000000E+000	3,4908574E+000	14	0,000000000000000E+000	0	0,0000000E+000	0,000000000000000E+000	0,000000000000000E+000	0,000000000000000E+000	0,000000000000000E+000	0,000000000000000E+000	0,000000000000000E+000	8,999999761581421E-001	0,000000000000000E+000	0,000000000000000E+000	0,000000000000000E+000	0,0000000E+000	0,0000000E+000	0,0000000E+000
3	1	0	0	0	0	0	3,849999902740819E+002	0,000000000000000E+000	0,000000000000000E+000	0,0000000E+000	3,4908764E+000	14	0,000000000000000E+000	0	0,0000000E+000	0,000000000000000E+000	0,000000000000000E+000	0,000000000000000E+000	0,000000000000000E+000	0,000000000000000E+000	0,000000000000000E+000	8,999999761581421E-001	0,000000000000000E+000	0,000000000000000E+000	0,000000000000000E+000	0,0000000E+000	0,0000000E+000	0,0000000E+000
3	1	0	0	0	0	0	4,399999888846651E+002	0,000000000000000E+000	0,000000000000000E+000	0,0000000E+000	3,4909148E+000	14	0,000000000000000E+000	0	0,0000000E+000	0,000000000000000E+000	0,000000000000000E+000	0,000000000000000E+000	0,000000000000000E+000	0,000000000000000E+000	0,000000000000000E+000	8,999999761581421E-001	0,000000000000000E+000	0,000000000000000E+000	0,000000000000000E+000	0,0000000E+000	0,0000000E+000	0,0000000E+000
3	1	0	0	0	0	0	4,949999874952482E+002	0,000000000000000E+000	0,000000000000000E+000	0,0000000E+000	3,4906473E+000	14	0,000000000000000E+000	0	0,0000000E+000	0,000000000000000E+000	0,000000000000000E+000	0,000000000000000E+000	0,000000000000000E+000	0,000000000000000E+000	0,000000000000000E+000	8,999999761581421E-001	0,000000000000000E+000	0,000000000000000E+000	0,000000000000000E+000	0,0000000E+000	0,0000000E+000	0,0000000E+000
3	1	0	0	0	0	0	5,499999861058313E+002	0,000000000000000E+000	0,000000000000000E+000	0,0000000E+000	3,4909148E+000	14	0,000000000000000E+000	0	0,0000000E+000	0,000000000000000E+000	0,000000000000000E+000	0,000000000000000E+000	0,000000000000000E+000	0,000000000000000E+000	0,000000000000000E+000	8,999999761581421E-001	0,000000000000000E+000	0,000000000000000E+000	0,000000000000000E+000	0,0000000E+000	0,0000000E+000	0,0000000E+000
3	1	0	0	0	0	0	6,049999847164145E+002	0,000000000000000E+000	0,000000000000000E+000	0,0000000E+000	3,4906473E+000	14	0,000000000000000E+000	0	0,0000000E+000	0,000000000000000E+000	0,000000000000000E+000	0,000000000000000E+000	0,000000000000000E+000	0,000000000000000E+000	0,000000000000000E+000	8,999999761581421E-001	0,000000000000000E+000	0,000000000000000E+000	0,000000000000000E+000	0,0000000E+000	0,0000000E+000	0,0000000E+000
3	1	0	0	0	0	0	6,599999833269976E+002	0,000000000000000E+000	0,000000000000000E+000	0,0000000E+000	3,4904943E+000	14	0,000000000000000E+000	0	0,0000000E+000	0,000000000000000E+000	0,000000000000000E+000	0,000000000000000E+000	0,000000000000000E+000	0,000000000000000E+000	0,000000000000000E+000	8,999999761581421E-001	0,000000000000000E+000	0,000000000000000E+000	0,000000000000000E+000	0,0000000E+000	0,0000000E+000	0,0000000E+000
3	1	0	0	0	0	0	7,149999819375807E+002	0,000000000000000E+000	0,000000000000000E+000	0,0000000E+000	3,4906473E+000	14	0,000000000000000E+000	0	0,0000000E+000	0,000000000000000E+000	0,000000000000000E+000	0,000000000000000E+000	0,000000000000000E+000	0,000000000000000E+000	0,000000000000000E+000	8,999999761581421E-001	0,000000000000000E+000	0,000000000000000E+000	0,000000000000000E+000	0,0000000E+000	0,0000000E+000	0,0000000E+000
3	1	0	0	0	0	0	7,699999805481639E+002	0,000000000000000E+000	0,000000000000000E+000	0,0000000E+000	3,4907620E+000	14	0,000000000000000E+000	0	0,0000000E+000	0,000000000000000E+000	0,000000000000000E+000	0,000000000000000E+000	0,000000000000000E+000	0,000000000000000E+000	0,000000000000000E+000	8,999999761581421E-001	0,000000000000000E+000	0,000000000000000E+000	0,000000000000000E+000	0,0000000E+000	0,0000000E+000	0,0000000E+000
3	1	0	0	0	0	0	8,249999791587470E+002	0,000000000000000E+000	0,000000000000000E+000	0,0000000E+000	3,4908001E+000	14	0,000000000000000E+000	0	0,0000000E+000	0,000000000000000E+000	0,000000000000000E+000	0,000000000000000E+000	0,000000000000000E+000	0,000000000000000E+000	0,000000000000000E+000	8,999999761581421E-001	0,000000000000000E+000	0,000000000000000E+000	0,000000000000000E+000	0,0000000E+000	0,0000000E+000	0,0000000E+000
3	1	0	0	0	0	0	8,799999777693301E+002	0,000000000000000E+000	0,000000000000000E+000	0,0000000E+000	3,4908383E+000	14	0,000000000000000E+000	0	0,0000000E+000	0,000000000000000E+000	0,000000000000000E+000	0,000000000000000E+000	0,000000000000000E+000	0,000000000000000E+000	0,000000000000000E+000	8,999999761581421E-001	0,000000000000000E+000	0,000000000000000E+000	0,000000000000000E+000	0,0000000E+000	0,0000000E+000	0,0000000E+000
3	1	0	0	0	0	0	9,349999763799133E+002	0,000000000000000E+000	0,000000000000000E+000	0,0000000E+000	3,4907045E+000	14	0,000000000000000E+000	0	0,0000000E+000	0,000000000000000E+000	0,000000000000000E+000	0,000000000000000E+000	0,000000000000000E+000	0,000000000000000E+000	0,000000000000000E+000	8,999999761581421E-001	0,000000000000000E+000	0,000000000000000E+000	0,000000000000000E+000	0,0000000E+000	0,0000000E+000	0,0000000E+000
3	1	0	0	0	0	0	9,899999749904964E+002	0,000000000000000E+000	0,000000000000000E+000	0,0000000E+000	3,4905899E+000	14	0,000000000000000E+000	0	0,0000000E+000	0,000000000000000E+000	0,000000000000000E+000	0,000000000000000E+000	0,000000000000000E+000	0,000000000000000E+000	0,000000000000000E+000	8,999999761581421E-001	0,000000000000000E+000	0,000000000000000E+000	0,000000000000000E+000	0,0000000E+000	0,0000000E+000	0,0000000E+000
3	1	0	0	0	0	0	1,044999973601080E+003	0,000000000000000E+000	0,000000000000000E+000	0,0000000E+000	3,4906664E+000	14	0,000000000000000E+000	0	0,0000000E+000	0,000000000000000E+000	0,000000000000000E+000	0,000000000000000E+000	0,000000000000000E+000	0,000000000000000E+000	0,000000000000000E+000	8,999999761581421E-001	0,000000000000000E+000	0,000000000000000E+000	0,000000000000000E+000	0,0000000E+000	0,0000000E+000	0,0000000E+000
3	1	0	0	0	0	0	1,099999972211663E+003	0,000000000000000E+000	0,000000000000000E+000	0,0000000E+000	3,4907620E+000	14	0,000000000000000E+000	0	0,0000000E+000	0,000000000000000E+000	0,000000000000000E+000	0,000000000000000E+000	0,000000000000000E+000	0,000000000000000E+000	0,000000000000000E+000	8,999999761581421E-001	0,000000000000000E+000	0,000000000000000E+000	0,000000000000000E+000	0,0000000E+000	0,0000000E+000	0,0000000E+000
3	1	0	0	0	0	0	1,154999970822246E+003	0,000000000000000E+000	0,000000000000000E+000	0,0000000E+000	3,4907427E+000	14	0,000000000000000E+000	0	0,0000000E+000	0,000000000000000E+000	0,000000000000000E+000	0,000000000000000E+000	0,000000000000000E+000	0,000000000000000E+000	0,000000000000000E+000	8,999999761581421E-001	0,000000000000000E+000	0,000000000000000E+000	0,000000000000000E+000	0,0000000E+000	0,0000000E+000	0,0000000E+000
3	1	0	0	0	0	0	1,209999969432829E+003	0,000000000000000E+000	0,000000000000000E+000	0,0000000E+000	3,4905899E+000	14	0,000000000000000E+000	0	0,0000000E+000	0,000000000000000E+000	0,000000000000000E+000	0,000000000000000E+000	0,000000000000000E+000	0,000000000000000E+000	0,000000000000000E+000	8,999999761581421E-001	0,000000000000000E+000	0,000000000000000E+000	0,000000000000000E+000	0,0000000E+000	0,0000000E+000	0,0000000E+000
3	1	0	0	0	0	0	1,264999968043412E+003	0,000000000000000E+000	0,000000000000000E+000	0,0000000E+000	3,4904370E+000	14	0,000000000000000E+000	0	0,0000000E+000	0,000000000000000E+000	0,000000000000000E+000	0,000000000000000E+000	0,000000000000000E+000	0,000000000000000E+000	0,000000000000000E+000	8,999999761581421E-001	0,000000000000000E+000	0,000000000000000E+000	0,000000000000000E+000	0,0000000E+000	0,0000000E+000	0,0000000E+000
3	1	0	0	0	0	0	1,319999966653995E+003	0,000000000000000E+000	0,000000000000000E+000	0,0000000E+000	3,4905517E+000	14	0,000000000000000E+000	0	0,0000000E+000	0,000000000000000E+000	0,000000000000000E+000	0,000000000000000E+000	0,000000000000000E+000	0,000000000000000E+000	0,000000000000000E+000	8,999999761581421E-001	0,000000000000000E+000	0,000000000000000E+000	0,000000000000000E+000	0,0000000E+000	0,0000000E+000	0,0000000E+000
3	1	0	0	0	0	0	1,374999965264578E+003	0,000000000000000E+000	0,000000000000000E+000	0,0000000E+000	3,4904752E+000	14	0,000000000000000E+000	0	0,0000000E+000	0,000000000000000E+000	0,000000000000000E+000	0,000000000000000E+000	0,000000000000000E+000	0,000000000000000E+000	0,000000000000000E+000	8,999999761581421E-001	0,000000000000000E+000	0,000000000000000E+000	0,000000000000000E+000	0,0000000E+000	0,0000000E+000	0,0000000E+000
1	1	0	1	0	0	1	2,147135545758792E+003	1,282904856891268E-003	3,293790485578134E-002	1,5400001E-001	3,6584029E+000	13	3,293790485897347E-002	2	5,6320598E-004	1,539485867160205E-001	1,000000000000000E+000	1,202462962238674E-004	0,000000000000000E+000	7,382927009793060E+005	0,000000000000000E+000	8,999827935763560E-001	0,000000000000000E+000	3,293790485897347E-002	3,293790485897347E-002	0,0000000E+000	0,0000000E+000	1,5400001E-001
1	1	0	1	0	0	1	3,797135504076286E+003	1,282906491574314E-003	1,034977109094862E-001	1,5400001E-001	3,6704032E+000	13	1,034977109126781E-001	2	5,6505413E-004	1,539487828779910E-001	1,000000000000000E+000	3,788905693784307E-004	0,000000000000000E+000	2,158584133091156E+006	0,000000000000000E+000	8,999459849316157E-001	0,000000000000000E+000	1,034977109126781E-001	1,034977109126781E-001	0,0000000E+000	0,0000000E+000	1,5400001E-001
1	1	0	1	0	0	1	5,447135480167868E+003	1,282903752017352E-003	1,740575608585709E-001	1,5400001E-001	3,6765563E+000	13	1,740575608617624E-001	2	5,6600018E-004	1,539484521059660E-001	1,000000000000000E+000	6,381074709948959E-004	0,000000000000000E+000	3,505251066320222E+006	0,000000000000000E+000	8,999091762639767E-001	0,000000000000000E+000	1,740575608617624E-001	1,740575608617624E-001	0,0000000E+000	0,0000000E+000	1,5400001E-001
1	1	0	1	0	0	1	7,097135460190999E+003	1,282902921933267E-003	2,446173273732960E-001	1,5400001E-001	3,6825755E+000	13	2,446173272030960E-001	2	5,6692644E-004	1,539483524958745E-001	1,000000000000000E+000	8,977381677760340E-004	0,000000000000000E+000	4,765748373928901E+006	0,000000000000000E+000	8,998723676398626E-001	0,000000000000000E+000	2,446173272030960E-001	2,446173272030960E-001	0,0000000E+000	0,0000000E+000	1,5400001E-001
1	1	0	1	0	0	1	8,747135440214130E+003	1,282901391853061E-003	3,151770776612361E-001	1,5400001E-001	3,6906776E+000	13	3,151770764350447E-001	2	5,6817307E-004	1,539481688862476E-001	1,000000000000000E+000	1,157853579203528E-003	0,000000000000000E+000	5,882494472448933E+006	0,000000000000000E+000	8,998355590242134E-001	0,000000000000000E+000	3,151770764350447E-001	3,151770764350447E-001	0,0000000E+000	0,0000000E+000	1,5400001E-001
1	1	0	1	0	0	1	1,039713542023726E+004	1,282905336835318E-003	3,857369060544256E-001	1,5400001E-001	3,7027161E+000	13	3,857369037724669E-001	2	5,7002809E-004	1,539486422841242E-001	1,000000000000000E+000	1,418672313245640E-003	0,000000000000000E+000	6,776488143637978E+006	0,000000000000000E+000	8,997987503678194E-001	0,000000000000000E+000	3,857369037724669E-001	3,857369037724669E-001	0,0000000E+000	0,0000000E+000	1,5400001E-001
1	1	0	1	0	0	1	1,204713540026039E+004	1,282905011292133E-003	4,562967620075958E-001	1,5400001E-001	3,7210605E+000	13	4,562967586685917E-001	2	5,7285209E-004	1,539486032189415E-001	1,000000000000000E+000	1,680556510495171E-003	0,000000000000000E+000	7,357429726214965E+006	0,000000000000000E+000	8,997619416970483E-001	0,000000000000000E+000	4,562967586685917E-001	4,562967586685917E-001	0,0000000E+000	0,0000000E+000	1,5400001E-001
1	1	0	1	0	0	1	1,369713538028352E+004	1,282905765210589E-003	5,268565183947732E-001	1,5400001E-001	3,7462077E+000	13	5,268565134162647E-001	2	5,7672377E-004	1,539486936891573E-001	1,000000000000000E+000	1,943977775177323E-003	0,000000000000000E+000	7,635177430513017E+006	0,000000000000000E+000	8,997251330782173E-001	0,000000000000000E+000	5,268565134162647E-001	5,268565134162647E-001	0,0000000E+000	0,0000000E+000	1,5400001E-001
1	1	0	1	0	0	1	1,534713536030665E+004	1,282906416748133E-003	5,974164406501493E-001	1,5400001E-001	3,7749856E+000	13	5,974164339396856E-001	2	5,8115437E-004	1,539487718736635E-001	1,000000000000000E+000	2,209338508655271E-003	0,000000000000000E+000	7,758889013956554E+006	0,000000000000000E+000	8,996883243728586E-001	0,000000000000000E+000	5,974164339396856E-001	5,974164339396856E-001	0,0000000E+000	0,0000000E+000	1,5400001E-001
1	1	0	1	0	0	1	1,699713534032978E+004	1,282907910692195E-003	6,679763220096454E-001	1,5400001E-001	3,8033047E+000	13	6,679763135689278E-001	2	5,8551476E-004	1,539489511469531E-001	1,000000000000000E+000	2,476717043850581E-003	0,000000000000000E+000	7,871129429077201E+006	0,000000000000000E+000	8,996515156888338E-001	0,000000000000000E+000	6,679763135689278E-001	6,679763135689278E-001	0,0000000E+000	0,0000000E+000	1,5400001E-001
1	1	0	1	0	0	1	1,864713532035291E+004	1,282905578732491E-003	7,385361446066598E-001	1,5400001E-001	3,8355219E+000	13	7,385361344350423E-001	2	5,9047347E-004	1,539486713117852E-001	1,000000000000000E+000	2,746189550828110E-003	0,000000000000000E+000	7,872399974938525E+006	0,000000000000000E+000	8,996147070354634E-001	0,000000000000000E+000	7,385361344350423E-001	7,385361344350423E-001	0,0000000E+000	0,0000000E+000	1,5400001E-001
1	1	0	1	0	0	1	2,029713530037605E+004	1,282907760249244E-003	8,090960741975870E-001	1,5400001E-001	3,8799117E+000	13	8,090960622948835E-001	2	5,9730827E-004	1,539489330937988E-001	1,000000000000000E+000	3,018323178638127E-003	0,000000000000000E+000	7,622639454778473E+006	0,000000000000000E+000	8,995778983262780E-001	0,000000000000000E+000	8,090960622948835E-001	8,090960622948835E-001	0,0000000E+000	0,0000000E+000	1,5400001E-001
1	1	0	1	0	0	1	2,194713528039918E+004	1,282908706465529E-003	8,796560167958422E-001	1,5400001E-001	3,9331105E+000	13	8,796560031624227E-001	2	6,0549862E-004	1,539490466397544E-001	1,000000000000000E+000	3,294032775291224E-003	0,000000000000000E+000	7,274617790989065E+006	0,000000000000000E+000	8,995410896103071E-001	0,000000000000000E+000	8,796560031624227E-001	8,796560031624227E-001	0,0000000E+000	0,0000000E+000	1,5400001E-001
1	1	0	1	0	0	1	2,359713526042231E+004	1,282904834179415E-003	9,502159050306943E-001	1,5400001E-001	3,9754555E+000	13	9,502158894254380E-001	2	6,1201572E-004	1,539485819654150E-001	1,000000000000000E+000	3,573116075130165E-003	0,000000000000000E+000	7,161507504110603E+006	0,000000000000000E+000	8,995042809226957E-001	0,000000000000000E+000	9,502158894254380E-001	9,502158894254380E-001	0,0000000E+000	0,0000000E+000	1,5400001E-001
1	1	0	1	0	0	1	2,524713524044547E+004	1,282906566682789E-003	1,020775698456367E+000	1,5400001E-001	4,0106540E+000	13	1,020775680187776E+000	2	6,1743532E-004	1,539487898658225E-001	1,000000000000000E+000	3,854952592213038E-003	0,000000000000000E+000	7,165292712698585E+006	0,000000000000000E+000	8,994674722845430E-001	0,000000000000000E+000	1,020775680187776E+000	1,020775680187776E+000	0,0000000E+000	0,0000000E+000	1,5400001E-001
1	1	0	1	0	0	1	2,689713522046860E+004	1,282907557700243E-003	1,091335649622361E+000	1,5400001E-001	4,0349412E+000	13	1,091335628710432E+000	2	6,2117475E-004	1,539489087879184E-001	1,000000000000000E+000	4,138858252013705E-003	0,000000000000000E+000	7,314210429143918E+006	0,000000000000000E+000	8,994306635641026E-001	0,000000000000000E+000	1,091335628710432E+000	1,091335628710432E+000	0,0000000E+000	0,0000000E+000	1,5400001E-001
1	1	0	1	0	0	1	2,854713520049170E+004	1,282906552219556E-003	1,161895546658265E+000	1,5400001E-001	4,0644450E+000	13	1,161895523095580E+000	2	6,2571635E-004	1,539487881302345E-001	1,000000000000000E+000	4,424515272746386E-003	0,000000000000000E+000	7,381656613274914E+006	0,000000000000000E+000	8,993938548719000E-001	0,000000000000000E+000	1,161895523095580E+000	1,161895523095580E+000	0,0000000E+000	0,0000000E+000	1,5400001E-001
1	1	0	1	0	0	1	3,019713518051483E+004	1,282907280962500E-003	1,232455418744963E+000	1,5400001E-001	4,1282682E+000	13	1,232455392523494E+000	2	6,3554227E-004	1,539488755793889E-001	1,000000000000000E+000	4,713368279404045E-003	0,000000000000000E+000	7,037303834652269E+006	0,000000000000000E+000	8,993570461927126E-001	0,000000000000000E+000	1,232455392523494E+000	1,232455392523494E+000	0,0000000E+000	0,0000000E+000	1,5400001E-001
1	1	0	1	0	0	1	3,184713516053796E+004	1,282905957645840E-003	1,303015217418608E+000	1,5400001E-001	4,1804161E+000	13	1,303015188528941E+000	2	6,4356969E-004	1,539487167813877E-001	1,000000000000000E+000	5,006795286576139E-003	0,000000000000000E+000	6,871816823333838E+006	0,000000000000000E+000	8,993202375518222E-001	0,000000000000000E+000	1,303015188528941E+000	1,303015188528941E+000	0,0000000E+000	0,0000000E+000	1,5400001E-001
1	1	0	1	0	0	1	3,349713515074702E+004	1,282904552516010E-003	1,373575024608667E+000	1,5400001E-001	4,1968493E+000	13	1,373574993048138E+000	2	6,4609887E-004	1,539485460151697E-001	1,000000000000000E+000	5,302446203866436E-003	0,000000000000000E+000	7,073645006689991E+006	0,000000000000000E+000	8,992834289064892E-001	0,000000000000000E+000	1,373574993048138E+000	1,373574993048138E+000	0,0000000E+000	0,0000000E+000	1,5400001E-001
1	1	0	1	0	0	1	3,514713515382039E+004	1,282903201811016E-003	1,444134794347187E+000	1,5400001E-001	4,2107034E+000	13	1,444134760120475E+000	2	6,4823095E-004	1,539483839305706E-001	1,000000000000000E+000	5,599063241290237E-003	0,000000000000000E+000	7,292490039253581E+006	0,000000000000000E+000	8,992466202806932E-001	0,000000000000000E+000	1,444134760120475E+000	1,444134760120475E+000	0,0000000E+000	0,0000000E+000	1,5400001E-001
1	1	0	1	0	0	1	3,679713515689375E+004	1,282905990672608E-003	1,514694549824158E+000	1,5400001E-001	4,2298503E+000	13	1,514694512924639E+000	2	6,5118005E-004	1,539487185939611E-001	1,000000000000000E+000	5,896800880916622E-003	0,000000000000000E+000	7,448743567547321E+006	0,000000000000000E+000	8,992098116623372E-001	0,000000000000000E+000	1,514694512924639E+000	1,514694512924639E+000	0,0000000E+000	0,0000000E+000	1,5400001E-001
1	1	0	1	0	0	1	3,844713515996712E+004	1,282907697494659E-003	1,585254346589347E+000	1,5400001E-001	4,2673035E+000	13	1,585254307022574E+000	2	6,5694674E-004	1,539489234126069E-001	1,000000000000000E+000	6,196407478244965E-003	0,000000000000000E+000	7,416302339962778E+006	0,000000000000000E+000	8,991730030224424E-001	0,000000000000000E+000	1,585254307022574E+000	1,585254307022574E+000	0,0000000E+000	0,0000000E+000	1,5400001E-001
1	0	0	0	0	0	2	3,946084896185540E+004	-1,283442711489896E-003	1,600310068641795E+000	-1,5400001E-001	4,1725621E+000	13	-1,415006850028121E-002	3	-6,4262934E-004	-1,540131250919157E-001	1,000000000000000E+000	6,321491953195196E-003	5,917510314913972E-005	7,245102499721685E+006	4,312194335943870E+005	8,991651489656453E-001	1,415006850028121E-002	0,000000000000000E+000	1,415006850028121E-002	0,0000000E+000	0,0000000E+000	-1,5400001E-001
1	0	0	0	0	0	2	4,111084896492877E+004	-1,283444818804661E-003	1,529720662027060E+000	-1,5400001E-001	4,1611161E+000	13	-8,473947868390962E-002	3	-6,4086757E-004	-1,540133779696871E-001	1,000000000000000E+000	6,321491953195196E-003	3,530885761190817E-004	7,245102499721685E+006	2,354297980891089E+006	8,992019730519889E-001	8,473947868390962E-002	0,000000000000000E+000	8,473947868390962E-002	0,0000000E+000	0,0000000E+000	-1,5400001E-001
1	0	0	0	0	0	2	4,276084896800213E+004	-1,283446476438807E-003	1,459131159794052E+000	-1,5400001E-001	4,1541224E+000	13	-1,553289844967806E-001	3	-6,3979125E-004	-1,540135768857842E-001	1,000000000000000E+000	6,321491953195196E-003	6,466126941608044E-004	7,245102499721685E+006	4,094475263638408E+006	8,992387971882133E-001	1,553289844967806E-001	0,000000000000000E+000	1,553289844967806E-001	0,0000000E+000	0,0000000E+000	-1,5400001E-001
1	0	0	0	0	0	2	4,441084897107549E+004	-1,283447101963063E-003	1,388541685307688E+000	-1,5400001E-001	4,1368670E+000	13	-2,259184625606389E-001	3	-6,3713401E-004	-1,540136519486948E-001	1,000000000000000E+000	6,321491953195196E-003	9,393236910697595E-004	7,245102499721685E+006	5,287192898069065E+006	8,992756213099632E-001	2,259184625606389E-001	0,000000000000000E+000	2,259184625606389E-001	0,0000000E+000	0,0000000E+000	-1,5400001E-001
1	0	0	0	0	0	2	4,606084897414886E+004	-1,283445306987398E-003	1,317952174416456E+000	-1,5400001E-001	4,0885983E+000	13	-2,965079770352865E-001	3	-6,2969909E-004	-1,540134365516154E-001	1,000000000000000E+000	6,321491953195196E-003	1,229944348626582E-003	7,245102499721685E+006	5,281828191013274E+006	8,993124454507043E-001	2,965079770352865E-001	0,000000000000000E+000	2,965079770352865E-001	0,0000000E+000	0,0000000E+000	-1,5400001E-001
1	0	0	0	0	0	2	4,771084897722222E+004	-1,283444576074680E-003	1,247362666286247E+000	-1,5400001E-001	4,0137687E+000	13	-3,670974887417099E-001	3	-6,1817397E-004	-1,540133488420893E-001	1,000000000000000E+000	6,321491953195196E-003	1,515592249448803E-003	7,245102499721685E+006	4,772249148956450E+006	8,993492695900051E-001	3,670974887417099E-001	0,000000000000000E+000	3,670974887417099E-001	0,0000000E+000	0,0000000E+000	-1,5400001E-001
1	0	0	0	0	0	2	4,936084898029559E+004	-1,283448402385745E-003	1,176773164418168E+000	-1,5400001E-001	3,9825256E+000	13	-4,376869941915283E-001	3	-6,1336393E-004	-1,540138079994163E-001	1,000000000000000E+000	6,321491953195196E-003	1,797649528096371E-003	7,245102499721685E+006	5,113046038362871E+006	8,993860937260391E-001	4,376869941915283E-001	0,000000000000000E+000	4,376869941915283E-001	0,0000000E+000	0,0000000E+000	-1,5400001E-001
1	0	0	0	0	0	2	5,101084898336895E+004	-1,283446089897719E-003	1,106183639759994E+000	-1,5400001E-001	3,9571874E+000	13	-5,082765224352191E-001	3	-6,0946040E-004	-1,540135305008537E-001	1,000000000000000E+000	6,321491953195196E-003	2,077909209660239E-003	7,245102499721685E+006	5,486554413361852E+006	8,994229178739619E-001	5,082765224352191E-001	0,000000000000000E+000	5,082765224352191E-001	0,0000000E+000	0,0000000E+000	-1,5400001E-001
1	0	0	0	0	0	2	5,266084898644232E+004	-1,283443423363070E-003	1,035594145775444E+000	-1,5400001E-001	3,9160080E+000	13	-5,788660200002468E-001	3	-6,0311699E-004	-1,540132105166964E-001	1,000000000000000E+000	6,321491953195196E-003	2,355884996887896E-003	7,245102499721685E+006	5,561788502848803E+006	8,994597420058833E-001	5,788660200002468E-001	0,000000000000000E+000	5,788660200002468E-001	0,0000000E+000	0,0000000E+000	-1,5400001E-001
1	0	0	0	0	0	2	5,431084898951568E+004	-1,283445012860000E-003	9,650046547935390E-001	-1,5400001E-001	3,8605926E+000	13	-6,494555145607014E-001	3	-5,9458299E-004	-1,540134012563277E-001	1,000000000000000E+000	6,321491953195196E-003	2,630393691710283E-003	7,245102499721685E+006	5,436035227372518E+006	8,994965661362384E-001	6,494555145607014E-001	0,000000000000000E+000	6,494555145607014E-001	0,0000000E+000	0,0000000E+000	-1,5400001E-001
1	0	0	0	0	0	2	5,596084899258905E+004	-1,283446187373665E-003	8,944150945970167E-001	-1,5400001E-001	3,8036869E+000	13	-7,200450773249036E-001	3	-5,8581930E-004	-1,540135421979672E-001	1,000000000000000E+000	6,321491953195196E-003	2,900772139891004E-003	7,245102499721685E+006	5,322650131038023E+006	8,995333903027004E-001	7,200450773249036E-001	0,000000000000000E+000	7,200450773249036E-001	0,0000000E+000	0,0000000E+000	-1,5400001E-001
1	0	0	0	0	0	2	5,761084899566241E+004	-1,283451478438245E-003	8,238254385013042E-001	-1,5400001E-001	3,7618387E+000	13	-7,906347351086369E-001	3	-5,7937647E-004	-1,540141771257156E-001	1,000000000000000E+000	6,321491953195196E-003	3,167709786715966E-003	7,245102499721685E+006	5,381985080175526E+006	8,995702145191897E-001	7,906347351086369E-001	0,000000000000000E+000	7,906347351086369E-001	0,0000000E+000	0,0000000E+000	-1,5400001E-001
1	0	0	0	0	0	2	5,926084899873578E+004	-1,283452053901222E-003	7,532357477065987E-001	-1,5400001E-001	3,7235065E+000	13	-8,612244275898254E-001	3	-5,7347305E-004	-1,540142461812728E-001	1,000000000000000E+000	6,321491953195196E-003	3,431894376144569E-003	7,245102499721685E+006	5,466294999451765E+006	8,996070387537803E-001	8,612244275898254E-001	0,000000000000000E+000	8,612244275898254E-001	0,0000000E+000	0,0000000E+000	-1,5400001E-001
1	0	0	0	0	0	2	6,091084900180914E+004	-1,283449252286719E-003	6,826459717413816E-001	-1,5400001E-001	3,6793270E+000	13	-9,318142052418027E-001	3	-5,6666759E-004	-1,540139099875330E-001	1,000000000000000E+000	6,321491953195196E-003	3,693191842236486E-003	7,245102499721685E+006	5,486946056782616E+006	8,996438630328014E-001	9,318142052418027E-001	0,000000000000000E+000	9,318142052418027E-001	0,0000000E+000	0,0000000E+000	-1,5400001E-001
1	0	0	0	0	0	2	6,256084900488250E+004	-1,283447895968954E-003	6,120561931781967E-001	-1,5400001E-001	3,6354342E+000	13	-1,002403985492411E+000	3	-5,5990688E-004	-1,540137472294015E-001	1,000000000000000E+000	6,321491953195196E-003	3,951259260002522E-003	7,245102499721685E+006	5,507221182380561E+006	8,996806873131779E-001	1,002403985492411E+000	0,000000000000000E+000	1,002403985492411E+000	0,0000000E+000	0,0000000E+000	-1,5400001E-001
1	0	0	0	0	0	2	6,421084900795587E+004	-1,283450615254541E-003	5,414664030538383E-001	-1,5400001E-001	3,6176631E+000	13	-1,072993777302182E+000	3	-5,5717106E-004	-1,540140735436714E-001	1,000000000000000E+000	6,321491953195196E-003	4,207155925970913E-003	7,245102499721685E+006	5,739386866729584E+006	8,997175115995854E-001	1,072993777302182E+000	0,000000000000000E+000	1,072993777302182E+000	0,0000000E+000	0,0000000E+000	-1,5400001E-001
1	0	0	0	0	0	2	6,586085113358428E+004	-1,283457919062012E-003	4,708764917835883E-001	-1,5400001E-001	3,5871847E+000	13	-1,143583690263049E+000	3	-5,5247650E-004	-1,540139597406409E-001	1,000000000000000E+000	6,321491953195196E-003	4,461686168174836E-003	7,245102499721685E+006	5,851959712660047E+006	8,997543359491905E-001	1,143583690263049E+000	0,000000000000000E+000	1,143583690263049E+000	0,0000000E+000	0,0000000E+000	-1,5400001E-001
1	0	0	0	0	0	2	6,751086174326669E+004	-1,283461202609870E-003	4,002862204691097E-001	-1,5400001E-001	3,4740226E+000	13	-1,214173962668922E+000	3	-5,3504936E-004	-1,540143539867734E-001	1,000000000000000E+000	6,321491953195196E-003	4,711059321174181E-003	7,245102499721685E+006	5,352254038461090E+006	8,997911604866186E-001	1,214173962668922E+000	0,000000000000000E+000	1,214173962668922E+000	0,0000000E+000	0,0000000E+000	-1,5400001E-001
1	0	0	0	0	0	2	6,908678537051310E+004	-1,030799178801477E-003	3,328655105284568E-001	-1,5400001E-001	3,2802408E+000	13	-1,281594673611234E+000	3	-5,0520344E-004	-1,540141243606515E-001	1,000000000000000E+000	6,321491953195196E-003	4,939786370253699E-003	7,245102499721685E+006	4,566016672222398E+006	8,998263315719592E-001	1,281594673611234E+000	0,000000000000000E+000	1,281594673611234E+000	0,0000000E+000	0,0000000E+000	-1,5400001E-001
1	0	0	0	0	0	2	7,000014215443830E+004	-4,951559164582028E-004	2,937905871142348E-001	-1,5400001E-001	3,0043294E+000	13	-1,320669597604500E+000	3	-4,6270975E-004	-1,540143186745811E-001	1,000000000000000E+000	6,321491953195196E-003	5,063065236743465E-003	7,245102499721685E+006	3,696008987153574E+006	8,998467156270560E-001	1,320669597604500E+000	0,000000000000000E+000	1,320669597604500E+000	0,0000000E+000	0,0000000E+000	-1,5400001E-001
1	1	0	1	0	1	1	7,001591955071525E+004	9,322485961019992E-006	2,935936998930888E-001	1,5400001E-001	3,2738585E+000	13	2,389891542295615E-004	4	5,0400838E-004	1,539493458722448E-001	2,000000000000000E+000	7,619338494722885E-007	0,000000000000000E+000	3,323003265297666E+003	0,000000000000000E+000	8,998468183364053E-001	0,000000000000000E+000	2,389891542295615E-004	2,389891542295615E-004	0,0000000E+000	0,0000000E+000	1,5400001E-001
1	1	0	1	0	1	1	7,006540013900516E+004	3,364645333025190E-004	2,957096726456541E-001	1,5400001E-001	3,5502474E+000	13	2,354961875213517E-003	4	5,4655789E-004	1,539492380163534E-001	2,000000000000000E+000	8,145130524651628E-006	0,000000000000000E+000	1,583760516147940E+004	0,000000000000000E+000	8,998457145055747E-001	0,000000000000000E+000	2,354961875213517E-003	2,354961875213517E-003	0,0000000E+000	0,0000000E+000	1,5400001E-001
1	1	0	1	0	1	1	7,168424495609198E+004	1,282917514946726E-003	3,649373205867277E-001	1,5400001E-001	3,6211219E+000	13	7,158260878149089E-002	4	5,5746851E-004	1,539491118604232E-001	2,000000000000000E+000	2,572297623106789E-004	0,000000000000000E+000	4,251211614942243E+005	0,000000000000000E+000	8,998096008022954E-001	0,000000000000000E+000	7,158260878149089E-002	7,158260878149089E-002	0,0000000E+000	0,0000000E+000	1,5400001E-001
1	1	0	1	0	1	1	7,333425556577276E+004	1,282918243705399E-003	4,354978735466161E-001	1,5400001E-001	3,6585367E+000	13	1,421431606883051E-001	4	5,6322879E-004	1,539491995379128E-001	2,000000000000000E+000	5,143044508608595E-004	0,000000000000000E+000	7,950967967451232E+005	0,000000000000000E+000	8,997727917679197E-001	0,000000000000000E+000	1,421431606883051E-001	1,421431606883051E-001	0,0000000E+000	0,0000000E+000	1,5400001E-001
1	1	0	1	0	1	1	7,498426617549738E+004	1,282919187539982E-003	5,060583905042352E-001	1,5400001E-001	3,6709001E+000	13	2,127036762092090E-001	4	5,6513253E-004	1,539493126676992E-001	2,000000000000000E+000	7,728672853407321E-004	0,000000000000000E+000	1,167361305618679E+006	0,000000000000000E+000	8,997359827523250E-001	0,000000000000000E+000	2,127036762092090E-001	2,127036762092090E-001	0,0000000E+000	0,0000000E+000	1,5400001E-001
1	1	0	1	0	1	1	7,663427678522328E+004	1,282921152195997E-003	5,766189450533423E-001	1,5400001E-001	3,6947095E+000	13	2,832642290319320E-001	4	5,6879886E-004	1,539495481972962E-001	2,000000000000000E+000	1,032642475422637E-003	0,000000000000000E+000	1,500159985854006E+006	0,000000000000000E+000	8,996991737171202E-001	0,000000000000000E+000	2,832642290319320E-001	2,832642290319320E-001	0,0000000E+000	0,0000000E+000	1,5400001E-001
1	1	0	1	0	1	1	7,828428739491850E+004	1,282923078157008E-003	6,471795655809525E-001	1,5400001E-001	3,7321436E+000	13	3,538248478330980E-001	4	5,7456270E-004	1,539497793356245E-001	2,000000000000000E+000	1,294656692033662E-003	0,000000000000000E+000	1,776041552773931E+006	0,000000000000000E+000	8,996623646474967E-001	0,000000000000000E+000	3,538248478330980E-001	3,538248478330980E-001	0,0000000E+000	0,0000000E+000	1,5400001E-001
1	1	0	1	0	1	1	7,993429800460080E+004	1,282919632157518E-003	7,177402215250714E-001	1,5400001E-001	3,7671890E+000	13	4,243855020496896E-001	4	5,7995634E-004	1,539493660432655E-001	2,000000000000000E+000	1,559305839890912E-003	0,000000000000000E+000	2,030981472587000E+006	0,000000000000000E+000	8,996255555593975E-001	0,000000000000000E+000	4,243855020496896E-001	4,243855020496896E-001	0,0000000E+000	0,0000000E+000	1,5400001E-001
1	1	0	1	0	1	1	8,158430861430382E+004	1,282924551966290E-003	7,883009708390964E-001	1,5400001E-001	3,7978013E+000	13	4,949462496384788E-001	4	5,8467133E-004	1,539499564992624E-001	2,000000000000000E+000	1,826234112066486E-003	0,000000000000000E+000	2,276041182788989E+006	0,000000000000000E+000	8,995887464225905E-001	0,000000000000000E+000	4,949462496384788E-001	4,949462496384788E-001	0,0000000E+000	0,0000000E+000	1,5400001E-001
1	1	0	1	0	1	1	8,323431922402990E+004	1,282923002243042E-003	8,588617138922240E-001	1,5400001E-001	3,8316047E+000	13	5,655069909661060E-001	4	5,8987463E-004	1,539497703072536E-001	2,000000000000000E+000	2,095387247587662E-003	0,000000000000000E+000	2,492877176630757E+006	0,000000000000000E+000	8,995519372890496E-001	0,000000000000000E+000	5,655069909661060E-001	5,655069909661060E-001	0,0000000E+000	0,0000000E+000	1,5400001E-001
1	1	0	1	0	1	1	8,488432983374619E+004	1,282924505207274E-003	9,294224610098617E-001	1,5400001E-001	3,8781536E+000	13	6,360677363609303E-001	4	5,9704151E-004	1,539499504873607E-001	2,000000000000000E+000	2,367313026696921E-003	0,000000000000000E+000	2,652721045522277E+006	0,000000000000000E+000	8,995151281533883E-001	0,000000000000000E+000	6,360677363609303E-001	6,360677363609303E-001	0,0000000E+000	0,0000000E+000	1,5400001E-001
1	1	0	1	0	1	1	8,653434044342814E+004	1,282921347001361E-003	9,999832448918257E-001	1,5400001E-001	3,9349830E+000	13	7,066285176786538E-001	4	6,0578895E-004	1,539495717171653E-001	2,000000000000000E+000	2,643043706253814E-003	0,000000000000000E+000	2,764962551719731E+006	0,000000000000000E+000	8,994783189985484E-001	0,000000000000000E+000	7,066285176786538E-001	7,066285176786538E-001	0,0000000E+000	0,0000000E+000	1,5400001E-001
1	1	0	1	0	1	1	8,818435105311032E+004	1,282925046896769E-003	1,070544058531403E+000	1,5400001E-001	3,9739649E+000	13	7,771893287263336E-001	4	6,1179197E-004	1,539500159257847E-001	2,000000000000000E+000	2,922188102800016E-003	0,000000000000000E+000	2,917447210575313E+006	0,000000000000000E+000	8,994415098281849E-001	0,000000000000000E+000	7,771893287263336E-001	7,771893287263336E-001	0,0000000E+000	0,0000000E+000	1,5400001E-001
1	1	0	1	0	1	1	8,983436166283721E+004	1,282921710404257E-003	1,141104902669236E+000	1,5400001E-001	4,0016346E+000	13	8,477501702752055E-001	4	6,1605009E-004	1,539496153969203E-001	2,000000000000000E+000	3,203647260516522E-003	0,000000000000000E+000	3,093079690597650E+006	0,000000000000000E+000	8,994047006419116E-001	0,000000000000000E+000	8,477501702752055E-001	8,477501702752055E-001	0,0000000E+000	0,0000000E+000	1,5400001E-001
1	1	0	1	0	1	1	9,148437227256247E+004	1,282924018108182E-003	1,211665719151749E+000	1,5400001E-001	4,0231509E+000	13	9,183109841611973E-001	4	6,1936362E-004	1,539498920914039E-001	2,000000000000000E+000	3,486785966356962E-003	0,000000000000000E+000	3,279021631372330E+006	0,000000000000000E+000	8,993678914700650E-001	0,000000000000000E+000	9,183109841611973E-001	9,183109841611973E-001	0,0000000E+000	0,0000000E+000	1,5400001E-001
1	1	0	1	0	1	1	9,313438288225568E+004	1,282926847252581E-003	1,282226531736689E+000	1,5400001E-001	4,0536103E+000	13	9,888717941549050E-001	4	6,2405423E-004	1,539502316362074E-001	2,000000000000000E+000	3,771632426571526E-003	0,000000000000000E+000	3,427425835105781E+006	0,000000000000000E+000	8,993310823002517E-001	0,000000000000000E+000	9,888717941549050E-001	9,888717941549050E-001	0,0000000E+000	0,0000000E+000	1,5400001E-001
1	1	0	1	0	1	1	9,478439349193801E+004	1,282928113864528E-003	1,352787478545368E+000	1,5400001E-001	4,1267204E+000	13	1,059432738392892E+000	4	6,3531019E-004	1,539503838538096E-001	2,000000000000000E+000	4,059934025673674E-003	0,000000000000000E+000	3,430519940447525E+006	0,000000000000000E+000	8,992942730604184E-001	0,000000000000000E+000	1,059432738392892E+000	1,059432738392892E+000	0,0000000E+000	0,0000000E+000	1,5400001E-001
1	1	0	1	0	1	1	9,643440410164278E+004	1,282927875131369E-003	1,423348406483610E+000	1,5400001E-001	4,1867981E+000	13	1,129993663760806E+000	4	6,4455904E-004	1,539503552633653E-001	2,000000000000000E+000	4,353694697352160E-003	0,000000000000000E+000	3,471413986215482E+006	0,000000000000000E+000	8,992574638304293E-001	0,000000000000000E+000	1,129993663760806E+000	1,129993663760806E+000	0,0000000E+000	0,0000000E+000	1,5400001E-001
1	1	0	1	0	1	1	9,808441471136984E+004	1,282924829977254E-003	1,493909347310580E+000	1,5400001E-001	4,1969452E+000	13	1,200554602016632E+000	4	6,4611965E-004	1,539499896221501E-001	2,000000000000000E+000	4,649549896230112E-003	0,000000000000000E+000	3,656519833172041E+006	0,000000000000000E+000	8,992206545937165E-001	0,000000000000000E+000	1,200554602016632E+000	1,200554602016632E+000	0,0000000E+000	0,0000000E+000	1,5400001E-001
1	1	0	1	0	1	1	9,973442532108282E+004	1,282924615584314E-003	1,564470328508673E+000	1,5400001E-001	4,2058115E+000	13	1,271115580651945E+000	4	6,4748450E-004	1,539499637319230E-001	2,000000000000000E+000	4,945983013112895E-003	0,000000000000000E+000	3,842603010585873E+006	0,000000000000000E+000	8,991838453359434E-001	0,000000000000000E+000	1,271115580651945E+000	1,271115580651945E+000	0,0000000E+000	0,0000000E+000	1,5400001E-001
1	1	0	1	0	1	1	1,013844359307643E+005	1,282927031007906E-003	1,635031292726785E+000	1,5400001E-001	4,2227421E+000	13	1,341676542300384E+000	4	6,5009226E-004	1,539502538084999E-001	2,000000000000000E+000	5,243280536372054E-003	0,000000000000000E+000	3,999055132454617E+006	0,000000000000000E+000	8,991470360870283E-001	0,000000000000000E+000	1,341676542300384E+000	1,341676542300384E+000	0,0000000E+000	0,0000000E+000	1,5400001E-001
1	1	0	1	0	1	1	1,030344465404499E+005	1,282928008240130E-003	1,705592265883750E+000	1,5400001E-001	4,2700934E+000	13	1,412237512885930E+000	4	6,5738248E-004	1,539503712858983E-001	2,000000000000000E+000	5,542624887414379E-003	0,000000000000000E+000	4,050570109023682E+006	0,000000000000000E+000	8,991102268334500E-001	0,000000000000000E+000	1,412237512885930E+000	1,412237512885930E+000	0,0000000E+000	0,0000000E+000	1,5400001E-001
1	0	0	0	0	1	2	1,040105897095969E+005	-1,283438927031226E-003	1,706491164288581E+000	-1,5400001E-001	4,1685495E+000	13	-2,042647958583053E-002	5	-6,4200530E-004	-1,540116807289358E-001	2,000000000000000E+000	5,634006363332993E-003	8,528689452589031E-005	4,015929119841349E+006	6,028912438973120E+005	8,991097579088045E-001	2,042647958583053E-002	0,000000000000000E+000	2,042647958583053E-002	0,0000000E+000	0,0000000E+000	-1,5400001E-001
1	0	0	0	0	1	2	1,056606003192824E+005	-1,283437184305655E-003	1,635902156292449E+000	-1,5400001E-001	4,1642880E+000	13	-9,101549104274892E-002	5	-6,4134813E-004	-1,540114717269236E-001	2,000000000000000E+000	5,634006363332993E-003	3,793470323406881E-004	4,015929119841349E+006	2,595650452563258E+006	8,991465817872024E-001	9,101549104274892E-002	0,000000000000000E+000	9,101549104274892E-002	0,0000000E+000	0,0000000E+000	-1,5400001E-001
1	0	0	0	0	1	2	1,073106109289652E+005	-1,283439616425170E-003	1,565313024084018E+000	-1,5400001E-001	4,1558995E+000	13	-1,616046267266563E-001	5	-6,4005743E-004	-1,540117638064920E-001	2,000000000000000E+000	5,634006363332993E-003	6,730539149083944E-004	4,015929119841349E+006	4,321584572655306E+006	8,991834057303976E-001	1,616046267266563E-001	0,000000000000000E+000	1,616046267266563E-001	0,0000000E+000	0,0000000E+000	-1,5400001E-001
1	0	0	0	0	1	2	1,089606215386773E+005	-1,283439230125811E-003	1,494723965207974E+000	-1,5400001E-001	4,1321855E+000	13	-2,321936890723316E-001	5	-6,3640496E-004	-1,540117174299496E-001	2,000000000000000E+000	5,634006363332993E-003	9,657094294911379E-004	4,015929119841349E+006	5,279288709728586E+006	8,992202296353378E-001	2,321936890723316E-001	0,000000000000000E+000	2,321936890723316E-001	0,0000000E+000	0,0000000E+000	-1,5400001E-001
1	0	0	0	0	1	2	1,106106321484031E+005	-1,283438725233078E-003	1,424134925765302E+000	-1,5400001E-001	4,0506868E+000	13	-3,027827319782882E-001	5	-6,2385295E-004	-1,540116566179008E-001	2,000000000000000E+000	5,634006363332993E-003	1,254912231080596E-003	4,015929119841349E+006	4,544887712461691E+006	8,992570535301402E-001	3,027827319782882E-001	0,000000000000000E+000	3,027827319782882E-001	0,0000000E+000	0,0000000E+000	-1,5400001E-001
1	0	0	0	0	1	2	1,122606427581105E+005	-1,283440666072071E-003	1,353545861189066E+000	-1,5400001E-001	3,9959018E+000	13	-3,733718000201758E-001	5	-6,1541639E-004	-1,540118894286313E-001	2,000000000000000E+000	5,634006363332993E-003	1,538514502438421E-003	4,015929119841349E+006	4,562296346442737E+006	8,992938774380540E-001	3,733718000201758E-001	0,000000000000000E+000	3,733718000201758E-001	0,0000000E+000	0,0000000E+000	-1,5400001E-001
1	0	0	0	0	1	2	1,139106533677911E+005	-1,283436628864043E-003	1,282956823876725E+000	-1,5400001E-001	3,9715955E+000	13	-4,439608407970734E-001	5	-6,1167096E-004	-1,540114051944843E-001	2,000000000000000E+000	5,634006363332993E-003	1,819684403010494E-003	4,015929119841349E+006	5,011392376914394E+006	8,993307013317451E-001	4,439608407970734E-001	0,000000000000000E+000	4,439608407970734E-001	0,0000000E+000	0,0000000E+000	-1,5400001E-001
1	0	0	0	0	1	2	1,155606639774842E+005	-1,283434563438925E-003	1,212367813739147E+000	-1,5400001E-001	3,9384036E+000	13	-5,145498543948649E-001	5	-6,0655811E-004	-1,540111575166606E-001	2,000000000000000E+000	5,634006363332993E-003	2,098955847886334E-003	4,015929119841349E+006	5,260692189482518E+006	8,993675252112601E-001	5,145498543948649E-001	0,000000000000000E+000	5,145498543948649E-001	0,0000000E+000	0,0000000E+000	-1,5400001E-001
1	0	0	0	0	1	2	1,172106745872104E+005	-1,283434074125356E-003	1,141778831713557E+000	-1,5400001E-001	3,8854342E+000	13	-5,851388398749577E-001	5	-5,9840002E-004	-1,540110985943453E-001	2,000000000000000E+000	5,634006363332993E-003	2,375136263844413E-003	4,015929119841349E+006	5,200123266045628E+006	8,994043490761100E-001	5,851388398749577E-001	0,000000000000000E+000	5,851388398749577E-001	0,0000000E+000	0,0000000E+000	-1,5400001E-001
1	0	0	0	0	1	2	1,188606851969361E+005	-1,283437886896233E-003	1,071189904199438E+000	-1,5400001E-001	3,8218594E+000	13	-6,557277708379259E-001	5	-5,8861054E-004	-1,540115558991960E-001	2,000000000000000E+000	5,634006363332993E-003	2,647101136159629E-003	4,015929119841349E+006	5,036942314775005E+006	8,994411729125231E-001	6,557277708379259E-001	0,000000000000000E+000	6,557277708379259E-001	0,0000000E+000	0,0000000E+000	-1,5400001E-001
1	0	0	0	0	1	2	1,205106958066198E+005	-1,283436455552777E-003	1,000600877485157E+000	-1,5400001E-001	3,7743549E+000	13	-7,263168010087111E-001	5	-5,8129360E-004	-1,540113842892428E-001	2,000000000000000E+000	5,634006363332993E-003	2,915082053600201E-003	4,015929119841349E+006	5,065699473549092E+006	8,994779968006856E-001	7,263168010087111E-001	0,000000000000000E+000	7,263168010087111E-001	0,0000000E+000	0,0000000E+000	-1,5400001E-001
1	0	0	0	0	1	2	1,221607064163012E+005	-1,283436730771429E-003	9,300119031985601E-001	-1,5400001E-001	3,7344177E+000	13	-7,969057786994201E-001	5	-5,7514297E-004	-1,540114175440150E-001	2,000000000000000E+000	5,634006363332993E-003	3,180071425972814E-003	4,015929119841349E+006	5,158865982040259E+006	8,995148206614983E-001	7,969057786994201E-001	0,000000000000000E+000	7,969057786994201E-001	0,0000000E+000	0,0000000E+000	-1,5400001E-001
1	0	0	0	0	1	2	1,238107170260164E+005	-1,283436970637076E-003	8,594230029372300E-001	-1,5400001E-001	3,6891873E+000	13	-8,674946806436767E-001	5	-5,6817709E-004	-1,540114462804942E-001	2,000000000000000E+000	5,634006363332993E-003	3,442111721711670E-003	4,015929119841349E+006	5,193426733834483E+006	8,995516444836946E-001	8,674946806436767E-001	0,000000000000000E+000	8,674946806436767E-001	0,0000000E+000	0,0000000E+000	-1,5400001E-001
1	0	0	0	0	1	2	1,254607276357430E+005	-1,283435688728260E-003	7,888340211605462E-001	-1,5400001E-001	3,6416638E+000	13	-9,380836641047424E-001	5	-5,6085736E-004	-1,540112922256213E-001	2,000000000000000E+000	5,634006363332993E-003	3,700773873203499E-003	4,015929119841349E+006	5,204693521514045E+006	8,995884683484148E-001	9,380836641047424E-001	0,000000000000000E+000	9,380836641047424E-001	0,0000000E+000	0,0000000E+000	-1,5400001E-001
1	0	0	0	0	1	2	1,271107382454467E+005	-1,283430476653079E-003	7,182451895604101E-001	-1,5400001E-001	3,6216950E+000	13	-1,008672497389361E+000	5	-5,5777968E-004	-1,540106667211570E-001	2,000000000000000E+000	5,634006363332993E-003	3,956964696546638E-003	4,015929119841349E+006	5,429249190543140E+006	8,996252921347928E-001	1,008672497389361E+000	0,000000000000000E+000	1,008672497389361E+000	0,0000000E+000	0,0000000E+000	-1,5400001E-001
1	0	0	0	0	1	2	1,287607488551283E+005	-1,283434997686909E-003	6,476563559037745E-001	-1,5400001E-001	3,5961275E+000	13	-1,079261332731977E+000	5	-5,5384391E-004	-1,540112094658419E-001	2,000000000000000E+000	5,634006363332993E-003	4,211881144847707E-003	4,015929119841349E+006	5,595303976288046E+006	8,996621159222438E-001	1,079261332731977E+000	0,000000000000000E+000	1,079261332731977E+000	0,0000000E+000	0,0000000E+000	-1,5400001E-001
1	0	0	0	0	1	2	1,304107594648236E+005	-1,283432935386896E-003	5,770675515097586E-001	-1,5400001E-001	3,4905899E+000	13	-1,149850138812671E+000	5	-5,3758913E-004	-1,540109621539889E-001	2,000000000000000E+000	5,634006363332993E-003	4,462472122196109E-003	4,015929119841349E+006	5,174773171846754E+006	8,996989396944293E-001	1,149850138812671E+000	0,000000000000000E+000	1,149850138812671E+000	0,0000000E+000	0,0000000E+000	-1,5400001E-001
1	0	0	0	0	1	2	1,320607638631513E+005	-1,283422893766728E-003	5,064790398704493E-001	-1,5400001E-001	3,3413124E+000	13	-1,220438652136148E+000	5	-5,1459798E-004	-1,540107231551519E-001	2,000000000000000E+000	5,634006363332993E-003	4,704215444743603E-003	4,015929119841349E+006	4,628677746254037E+006	8,997357633138947E-001	1,220438652136148E+000	0,000000000000000E+000	1,220438652136148E+000	0,0000000E+000	0,0000000E+000	-1,5400001E-001
1	0	0	0	0	1	2	1,335423334949594E+005	-8,108666860527462E-004	4,430963268548697E-001	-1,5400001E-001	3,0857136E+000	13	-1,283821366458650E+000	5	-4,7523304E-004	-1,540107424800771E-001	2,000000000000000E+000	5,634006363332993E-003	4,908718946281500E-003	4,015929119841349E+006	3,836097195657977E+006	8,997688279139348E-001	1,283821366458650E+000	0,000000000000000E+000	1,283821366458650E+000	0,0000000E+000	0,0000000E+000	-1,5400001E-001
1	1	0	1	0	0	3	1,338356743408563E+005	6,542833166817824E-006	4,307453238095922E-001	2,4039902E-001	3,1894169E+000	13	1,208688274241156E-004	6	7,6657295E-004	2,403489372193255E-001	3,000000000000000E+000	3,785836579518973E-007	0,000000000000000E+000	2,520683702020488E+003	0,000000000000000E+000	8,997752710110563E-001	0,000000000000000E+000	1,208688274241156E-004	1,208688274241156E-004	0,0000000E+000	0,0000000E+000	2,4039902E-001
1	1	0	1	0	0	3	1,338472949426753E+005	2,550361209859451E-005	4,315211554360903E-001	2,4039902E-001	3,4657104E+000	13	8,967004435294203E-004	6	8,3297706E-004	2,403481388409489E-001	3,000000000000000E+000	2,984528646551476E-006	0,000000000000000E+000	7,190918717350755E+003	0,000000000000000E+000	8,997748662861524E-001	0,000000000000000E+000	8,967004435294203E-004	8,967004435294203E-004	0,0000000E+000	0,0000000E+000	2,4039902E-001
1	1	0	1	0	0	3	1,348339126970423E+005	2,002904458610548E-003	4,973911718870302E-001	2,4039902E-001	3,6305425E+000	13	6,676671577745179E-002	6	8,7259547E-004	2,403484974278129E-001	3,000000000000000E+000	2,409392847368492E-004	0,000000000000000E+000	3,916264676084141E+005	0,000000000000000E+000	8,997405041447268E-001	0,000000000000000E+000	6,676671577745179E-002	6,676671577745179E-002	0,0000000E+000	0,0000000E+000	2,4039902E-001
1	1	0	1	0	0	3	1,364839129552045E+005	2,002902926200794E-003	6,075509263218873E-001	2,4039902E-001	3,6687598E+000	13	1,769264679021346E-001	6	8,8178023E-004	2,403483135386712E-001	3,000000000000000E+000	6,434543663243995E-004	0,000000000000000E+000	9,769457680131786E+005	0,000000000000000E+000	8,996830375572680E-001	0,000000000000000E+000	1,769264679021346E-001	1,769264679021346E-001	0,0000000E+000	0,0000000E+000	2,4039902E-001
1	1	0	1	0	0	3	1,381339132133666E+005	2,002905163421399E-003	7,177106204434169E-001	2,4039902E-001	3,7040346E+000	13	2,870861597127988E-001	6	8,9025946E-004	2,403485820051018E-001	3,000000000000000E+000	1,049366376523022E-003	0,000000000000000E+000	1,503854944083500E+006	0,000000000000000E+000	8,996255710012725E-001	0,000000000000000E+000	2,870861597127988E-001	2,870861597127988E-001	0,0000000E+000	0,0000000E+000	2,4039902E-001
1	1	0	1	0	0	3	1,397839134715283E+005	2,002903245652716E-003	8,278702220280344E-001	2,4039902E-001	3,7602909E+000	13	3,972457589884251E-001	6	9,0377970E-004	2,403483518728957E-001	3,000000000000000E+000	1,460493501726063E-003	0,000000000000000E+000	1,923457572304937E+006	0,000000000000000E+000	8,995681044935503E-001	0,000000000000000E+000	3,972457589884251E-001	3,972457589884251E-001	0,0000000E+000	0,0000000E+000	2,4039902E-001
1	1	0	1	0	0	3	1,399686453004307E+005	3,159111321510540E-004	8,402035414918015E-001	2,4039902E-001	3,7662528E+000	13	4,095790781938616E-001	6	9,0521231E-004	2,403482602986824E-001	3,000000000000000E+000	1,506912630578603E-003	0,000000000000000E+000	1,967399277338961E+006	0,000000000000000E+000	8,995616706213503E-001	0,000000000000000E+000	4,095790781938616E-001	4,095790781938616E-001	0,0000000E+000	0,0000000E+000	2,4039902E-001